# timestamp, linear_acceleration.x, linear_acceleration.y, linear_acceleration.z, angular_velocity.x, angular_velocity.y, angular_velocity.z
1.896474962000000097e+00,5.149999856948852539e-01,8.799999952316284180e-02,-8.682999610900878906e+00,-4.100000113248825073e-02,-1.299999952316284180e-01,-5.999999865889549255e-02
1.896508610000000150e+00,5.149999856948852539e-01,8.799999952316284180e-02,-8.682999610900878906e+00,-4.100000113248825073e-02,-1.299999952316284180e-01,-5.999999865889549255e-02
1.907632129000000010e+00,-6.679999828338623047e-01,-2.199999988079071045e-02,-1.052099990844726562e+01,-3.400000184774398804e-02,6.700000166893005371e-02,2.800000086426734924e-02
1.916342759000000173e+00,-6.679999828338623047e-01,-2.199999988079071045e-02,-1.052099990844726562e+01,-3.400000184774398804e-02,6.700000166893005371e-02,2.800000086426734924e-02
1.924488129000000214e+00,9.649999737739562988e-01,6.970000267028808594e-01,-7.821000099182128906e+00,-5.000000074505805969e-02,-1.400000043213367462e-02,1.000000047497451305e-03
1.936137851000000021e+00,9.649999737739562988e-01,6.970000267028808594e-01,-7.821000099182128906e+00,-5.000000074505805969e-02,-1.400000043213367462e-02,1.000000047497451305e-03
1.944152796000000016e+00,1.304999947547912598e+00,1.120000034570693970e-01,-1.144099998474121094e+01,-1.200000010430812836e-02,4.600000008940696716e-02,1.040000021457672119e-01
1.956286592000000102e+00,1.304999947547912598e+00,1.120000034570693970e-01,-1.144099998474121094e+01,-1.200000010430812836e-02,4.600000008940696716e-02,1.040000021457672119e-01
1.968680425000000067e+00,1.123000025749206543e+00,-6.489999890327453613e-01,-8.640000343322753906e+00,3.000000026077032089e-03,-6.499999761581420898e-02,1.049999967217445374e-01
1.977147944000000157e+00,8.790000081062316895e-01,2.460000067949295044e-01,-9.248000144958496094e+00,-6.000000052154064178e-03,8.999999612569808960e-03,1.529999971389770508e-01
1.994859258000000191e+00,8.790000081062316895e-01,2.460000067949295044e-01,-9.248000144958496094e+00,-6.000000052154064178e-03,8.999999612569808960e-03,1.529999971389770508e-01
2.020584240000000253e+00,8.790000081062316895e-01,2.460000067949295044e-01,-9.248000144958496094e+00,-6.000000052154064178e-03,8.999999612569808960e-03,1.529999971389770508e-01
2.030453721000000211e+00,7.540000081062316895e-01,-2.750000059604644775e-01,-1.056000041961669922e+01,5.299999937415122986e-02,-1.000000047497451305e-03,9.999999776482582092e-03
2.043089740000000099e+00,7.540000081062316895e-01,-2.750000059604644775e-01,-1.056000041961669922e+01,5.299999937415122986e-02,-1.000000047497451305e-03,9.999999776482582092e-03
2.052226666000000144e+00,-1.599999964237213135e-01,-1.251999974250793457e+00,-6.451000213623046875e+00,1.799999922513961792e-02,2.500000037252902985e-02,3.500000014901161194e-02
2.056247166000000348e+00,-1.599999964237213135e-01,-1.251999974250793457e+00,-6.451000213623046875e+00,1.799999922513961792e-02,2.500000037252902985e-02,3.500000014901161194e-02
2.070960481000000186e+00,1.889999955892562866e-01,-1.319999992847442627e-01,-1.005200004577636719e+01,2.099999971687793732e-02,-5.600000172853469849e-02,-5.200000107288360596e-02
2.077354018000000302e+00,1.889999955892562866e-01,-1.319999992847442627e-01,-1.005200004577636719e+01,2.099999971687793732e-02,-5.600000172853469849e-02,-5.200000107288360596e-02
2.088291370000000313e+00,5.339999794960021973e-01,2.460000067949295044e-01,-1.140200042724609375e+01,2.600000053644180298e-02,-8.999999612569808960e-03,-3.200000151991844177e-02
2.097039740000000041e+00,5.339999794960021973e-01,2.460000067949295044e-01,-1.140200042724609375e+01,2.600000053644180298e-02,-8.999999612569808960e-03,-3.200000151991844177e-02
2.104356609999999961e+00,3.099999949336051941e-02,5.289999842643737793e-01,-8.932000160217285156e+00,1.400000043213367462e-02,-3.000000026077032089e-03,-5.200000107288360596e-02
2.113795980999999991e+00,3.099999949336051941e-02,5.289999842643737793e-01,-8.932000160217285156e+00,1.400000043213367462e-02,-3.000000026077032089e-03,-5.200000107288360596e-02
2.124348869999999945e+00,-5.910000205039978027e-01,6.869999766349792480e-01,-7.605000019073486328e+00,3.400000184774398804e-02,-8.100000023841857910e-02,-1.080000028014183044e-01
2.134802795000000142e+00,-5.910000205039978027e-01,6.869999766349792480e-01,-7.605000019073486328e+00,3.400000184774398804e-02,-8.100000023841857910e-02,-1.080000028014183044e-01
2.146602684000000316e+00,-1.281000018119812012e+00,3.759999871253967285e-01,-1.038700008392333984e+01,5.299999937415122986e-02,-7.000000029802322388e-02,-1.729999929666519165e-01
2.153553035999999921e+00,-1.281000018119812012e+00,3.759999871253967285e-01,-1.038700008392333984e+01,5.299999937415122986e-02,-7.000000029802322388e-02,-1.729999929666519165e-01
2.165507018000000006e+00,-1.610999941825866699e+00,-1.940000057220458984e-01,-6.019999980926513672e+00,3.999999910593032837e-02,-4.100000113248825073e-02,-2.660000026226043701e-01
2.176159166000000145e+00,-1.610999941825866699e+00,-1.940000057220458984e-01,-6.019999980926513672e+00,3.999999910593032837e-02,-4.100000113248825073e-02,-2.660000026226043701e-01
2.183952332000000052e+00,-9.169999957084655762e-01,2.419999986886978149e-01,-9.458000183105468750e+00,-2.600000053644180298e-02,1.030000001192092896e-01,-2.389999926090240479e-01
2.195677794999999932e+00,5.199999809265136719e-01,-3.379999995231628418e-01,-1.426099967956542969e+01,2.500000037252902985e-02,6.899999827146530151e-02,-7.599999755620956421e-02
2.203915720999999994e+00,5.199999809265136719e-01,-3.379999995231628418e-01,-1.426099967956542969e+01,2.500000037252902985e-02,6.899999827146530151e-02,-7.599999755620956421e-02
2.214854684000000073e+00,5.199999809265136719e-01,-3.379999995231628418e-01,-1.426099967956542969e+01,2.500000037252902985e-02,6.899999827146530151e-02,-7.599999755620956421e-02
2.223544831999999971e+00,-1.514999985694885254e+00,1.270000040531158447e-01,-8.635000228881835938e+00,3.799999877810478210e-02,-3.299999982118606567e-02,-1.759999990463256836e-01
2.234520147000000012e+00,-1.514999985694885254e+00,1.270000040531158447e-01,-8.635000228881835938e+00,3.799999877810478210e-02,-3.299999982118606567e-02,-1.759999990463256836e-01
2.247418869000000097e+00,-9.599999785423278809e-01,-4.909999966621398926e-01,-8.725999832153320312e+00,-6.000000052154064178e-03,1.200000010430812836e-02,-1.759999990463256836e-01
2.253578405999999923e+00,-9.599999785423278809e-01,-4.909999966621398926e-01,-8.725999832153320312e+00,-6.000000052154064178e-03,1.200000010430812836e-02,-1.759999990463256836e-01
2.265959610000000346e+00,-9.599999785423278809e-01,-4.909999966621398926e-01,-8.725999832153320312e+00,-6.000000052154064178e-03,1.200000010430812836e-02,-1.759999990463256836e-01
2.274850314000000040e+00,1.539999961853027344e+00,-5.499999970197677612e-02,-1.246100044250488281e+01,-5.200000107288360596e-02,7.000000029802322388e-02,-1.289999932050704956e-01
2.283843425000000149e+00,1.539999961853027344e+00,-5.499999970197677612e-02,-1.246100044250488281e+01,-5.200000107288360596e-02,7.000000029802322388e-02,-1.289999932050704956e-01
2.294339461999999941e+00,1.539999961853027344e+00,-5.499999970197677612e-02,-1.246100044250488281e+01,-5.200000107288360596e-02,7.000000029802322388e-02,-1.289999932050704956e-01
2.304486146999999985e+00,5.499999970197677612e-02,-1.369999945163726807e-01,-7.882999897003173828e+00,-1.400000043213367462e-02,-1.000000047497451305e-03,1.630000025033950806e-01
2.313549239999999951e+00,7.689999938011169434e-01,-4.189999997615814209e-01,-1.171399974822998047e+01,-2.800000086426734924e-02,3.099999949336051941e-02,9.399999678134918213e-02
2.323587036000000161e+00,7.689999938011169434e-01,-4.189999997615814209e-01,-1.171399974822998047e+01,-2.800000086426734924e-02,3.099999949336051941e-02,9.399999678134918213e-02
2.335284592000000270e+00,7.879999876022338867e-01,-2.899999916553497314e-01,-8.380999565124511719e+00,-2.999999932944774628e-02,5.000000074505805969e-02,5.000000074505805969e-02
2.345982129000000249e+00,7.879999876022338867e-01,-2.899999916553497314e-01,-8.380999565124511719e+00,-2.999999932944774628e-02,5.000000074505805969e-02,5.000000074505805969e-02
2.353993610000000292e+00,7.879999876022338867e-01,-2.899999916553497314e-01,-8.380999565124511719e+00,-2.999999932944774628e-02,5.000000074505805969e-02,5.000000074505805969e-02
2.366122647000000079e+00,7.879999876022338867e-01,-2.899999916553497314e-01,-8.380999565124511719e+00,-2.999999932944774628e-02,5.000000074505805969e-02,5.000000074505805969e-02
2.376452331999999945e+00,1.175999999046325684e+00,6.489999890327453613e-01,-1.166600036621093750e+01,-2.800000086426734924e-02,4.600000008940696716e-02,8.100000023841857910e-02
2.384508869000000253e+00,7.639999985694885254e-01,2.319999933242797852e-01,-1.150800037384033203e+01,3.000000026077032089e-03,-4.199999943375587463e-02,4.800000041723251343e-02
2.394953999000000167e+00,7.639999985694885254e-01,2.319999933242797852e-01,-1.150800037384033203e+01,3.000000026077032089e-03,-4.199999943375587463e-02,4.800000041723251343e-02
2.405468740000000327e+00,3.330000042915344238e-01,1.169999986886978149e-01,-9.362999916076660156e+00,-8.999999612569808960e-03,7.000000216066837311e-03,4.000000189989805222e-03
2.415094054999999962e+00,3.330000042915344238e-01,1.169999986886978149e-01,-9.362999916076660156e+00,-8.999999612569808960e-03,7.000000216066837311e-03,4.000000189989805222e-03
2.423678129000000236e+00,8.889999985694885254e-01,2.600000053644180298e-02,-1.094799995422363281e+01,-1.099999994039535522e-02,-1.099999994039535522e-02,4.999999888241291046e-03
2.436969555000000121e+00,8.889999985694885254e-01,2.600000053644180298e-02,-1.094799995422363281e+01,-1.099999994039535522e-02,-1.099999994039535522e-02,4.999999888241291046e-03
2.444634240000000069e+00,8.690000176429748535e-01,-3.709999918937683105e-01,-9.251999855041503906e+00,-1.099999994039535522e-02,-4.199999943375587463e-02,2.700000070035457611e-02
2.453808962000000093e+00,8.690000176429748535e-01,-3.709999918937683105e-01,-9.251999855041503906e+00,-1.099999994039535522e-02,-4.199999943375587463e-02,2.700000070035457611e-02
2.463795295000000163e+00,-2.262000083923339844e+00,1.519999980926513672e+00,-5.856999874114990234e+00,6.000000052154064178e-03,-7.100000232458114624e-02,1.099999994039535522e-02
2.476029868999999994e+00,-2.262000083923339844e+00,1.519999980926513672e+00,-5.856999874114990234e+00,6.000000052154064178e-03,-7.100000232458114624e-02,1.099999994039535522e-02
2.483872961999999962e+00,-2.908999919891357422e+00,1.174999952316284180e+00,-8.576999664306640625e+00,-1.200000010430812836e-02,-1.539999991655349731e-01,1.000000047497451305e-03
2.493711350999999965e+00,-2.908999919891357422e+00,1.174999952316284180e+00,-8.576999664306640625e+00,-1.200000010430812836e-02,-1.539999991655349731e-01,1.000000047497451305e-03
2.505797814000000123e+00,-2.697999954223632812e+00,-1.243000030517578125e+00,-6.752999782562255859e+00,5.099999904632568359e-02,-1.000000047497451305e-03,-1.280000060796737671e-01
2.515714443000000244e+00,-2.697999954223632812e+00,-1.243000030517578125e+00,-6.752999782562255859e+00,5.099999904632568359e-02,-1.000000047497451305e-03,-1.280000060796737671e-01
2.523763666000000239e+00,-2.467999935150146484e+00,7.540000081062316895e-01,-4.794000148773193359e+00,4.399999976158142090e-02,-4.800000041723251343e-02,-4.050000011920928955e-01
2.534768443000000371e+00,-2.467999935150146484e+00,7.540000081062316895e-01,-4.794000148773193359e+00,4.399999976158142090e-02,-4.800000041723251343e-02,-4.050000011920928955e-01
2.546411480000000171e+00,-2.793999910354614258e+00,1.434000015258789062e+00,-1.006599998474121094e+01,4.699999839067459106e-02,-1.030000001192092896e-01,-3.379999995231628418e-01
2.559034351000000207e+00,-2.793999910354614258e+00,1.434000015258789062e+00,-1.006599998474121094e+01,4.699999839067459106e-02,-1.030000001192092896e-01,-3.379999995231628418e-01
2.563513684000000126e+00,-5.099999904632568359e-01,-9.219999909400939941e-01,-9.017999649047851562e+00,6.000000052154064178e-03,8.399999886751174927e-02,-2.540000081062316895e-01
2.576840516999999942e+00,-5.099999904632568359e-01,-9.219999909400939941e-01,-9.017999649047851562e+00,6.000000052154064178e-03,8.399999886751174927e-02,-2.540000081062316895e-01
2.586135536000000013e+00,2.545000076293945312e+00,-1.664000034332275391e+00,-1.134500026702880859e+01,7.000000216066837311e-03,1.270000040531158447e-01,-8.699999749660491943e-02
2.593927925000000023e+00,2.545000076293945312e+00,-1.664000034332275391e+00,-1.134500026702880859e+01,7.000000216066837311e-03,1.270000040531158447e-01,-8.699999749660491943e-02
2.603991036000000037e+00,7.400000095367431641e-01,5.820000171661376953e-01,-8.696999549865722656e+00,-1.799999922513961792e-02,-1.659999936819076538e-01,-1.200000010430812836e-02
2.614021573000000043e+00,7.400000095367431641e-01,5.820000171661376953e-01,-8.696999549865722656e+00,-1.799999922513961792e-02,-1.659999936819076538e-01,-1.200000010430812836e-02
2.623814016999999943e+00,7.829999923706054688e-01,-3.519999980926513672e-01,-8.715999603271484375e+00,3.099999949336051941e-02,-1.300000026822090149e-02,1.389999985694885254e-01
2.634257091000000273e+00,7.829999923706054688e-01,-3.519999980926513672e-01,-8.715999603271484375e+00,3.099999949336051941e-02,-1.300000026822090149e-02,1.389999985694885254e-01
2.645835351000000113e+00,1.609999984502792358e-01,-1.650000065565109253e-01,-9.736000061035156250e+00,4.999999888241291046e-03,9.099999815225601196e-02,1.500000059604644775e-01
2.653960091000000077e+00,1.609999984502792358e-01,-1.650000065565109253e-01,-9.736000061035156250e+00,4.999999888241291046e-03,9.099999815225601196e-02,1.500000059604644775e-01
2.663731814000000142e+00,9.120000004768371582e-01,8.799999952316284180e-02,-9.248000144958496094e+00,3.000000026077032089e-03,-2.400000020861625671e-02,1.000000014901161194e-01
2.676149332000000047e+00,9.120000004768371582e-01,8.799999952316284180e-02,-9.248000144958496094e+00,3.000000026077032089e-03,-2.400000020861625671e-02,1.000000014901161194e-01
2.684954054000000312e+00,9.359999895095825195e-01,2.600000053644180298e-02,-9.607000350952148438e+00,-2.800000086426734924e-02,3.599999845027923584e-02,5.900000035762786865e-02
2.696204888000000022e+00,9.359999895095825195e-01,2.600000053644180298e-02,-9.607000350952148438e+00,-2.800000086426734924e-02,3.599999845027923584e-02,5.900000035762786865e-02
2.703635091000000212e+00,8.650000095367431641e-01,-3.759999871253967285e-01,-9.965999603271484375e+00,-1.300000026822090149e-02,-2.800000086426734924e-02,8.000000379979610443e-03
2.715534980000000154e+00,8.650000095367431641e-01,-3.759999871253967285e-01,-9.965999603271484375e+00,-1.300000026822090149e-02,-2.800000086426734924e-02,8.000000379979610443e-03
2.724572221000000294e+00,9.799999743700027466e-02,1.360000073909759521e-01,-6.685999870300292969e+00,1.999999955296516418e-02,-2.199999988079071045e-02,-2.199999988079071045e-02
2.737838090999999974e+00,9.799999743700027466e-02,1.360000073909759521e-01,-6.685999870300292969e+00,1.999999955296516418e-02,-2.199999988079071045e-02,-2.199999988079071045e-02
2.745180591000000003e+00,9.599999785423278809e-01,-2.849999964237213135e-01,-1.015299987792968750e+01,-1.799999922513961792e-02,2.800000086426734924e-02,-3.900000080466270447e-02
2.757257406000000355e+00,9.599999785423278809e-01,-2.849999964237213135e-01,-1.015299987792968750e+01,-1.799999922513961792e-02,2.800000086426734924e-02,-3.900000080466270447e-02
2.764418869000000001e+00,1.161000013351440430e+00,4.329999983310699463e-01,-1.189599990844726562e+01,7.000000216066837311e-03,-1.799999922513961792e-02,5.000000074505805969e-02
2.776235128000000163e+00,1.161000013351440430e+00,4.329999983310699463e-01,-1.189599990844726562e+01,7.000000216066837311e-03,-1.799999922513961792e-02,5.000000074505805969e-02
2.785197684000000340e+00,1.940000057220458984e-01,7.900000363588333130e-02,-1.023400020599365234e+01,4.300000146031379700e-02,-6.100000068545341492e-02,1.700000092387199402e-02
2.794355517000000066e+00,1.940000057220458984e-01,7.900000363588333130e-02,-1.023400020599365234e+01,4.300000146031379700e-02,-6.100000068545341492e-02,1.700000092387199402e-02
2.807102962000000090e+00,-2.800000011920928955e-01,-7.730000019073486328e-01,-8.395000457763671875e+00,2.400000020861625671e-02,-2.099999971687793732e-02,-2.500000037252902985e-02
2.815713628000000135e+00,-2.800000011920928955e-01,-7.730000019073486328e-01,-8.395000457763671875e+00,2.400000020861625671e-02,-2.099999971687793732e-02,-2.500000037252902985e-02
2.823994110000000113e+00,2.280000001192092896e-01,5.000000074505805969e-02,-9.156999588012695312e+00,7.000000216066837311e-03,2.800000086426734924e-02,5.700000002980232239e-02
2.836776147000000137e+00,2.280000001192092896e-01,5.000000074505805969e-02,-9.156999588012695312e+00,7.000000216066837311e-03,2.800000086426734924e-02,5.700000002980232239e-02
2.844262073000000335e+00,4.909999966621398926e-01,-1.169999986886978149e-01,-1.051200008392333984e+01,-1.099999994039535522e-02,2.700000070035457611e-02,3.299999982118606567e-02
2.854087536000000203e+00,4.909999966621398926e-01,-1.169999986886978149e-01,-1.051200008392333984e+01,-1.099999994039535522e-02,2.700000070035457611e-02,3.299999982118606567e-02
2.865831702000000369e+00,-1.639999985694885254e+00,-9.269999861717224121e-01,-9.352999687194824219e+00,-2.700000070035457611e-02,-8.999999612569808960e-03,-8.000000379979610443e-03
2.874534906000000056e+00,-1.639999985694885254e+00,-9.269999861717224121e-01,-9.352999687194824219e+00,-2.700000070035457611e-02,-8.999999612569808960e-03,-8.000000379979610443e-03
2.884287628000000048e+00,-1.343000054359436035e+00,2.849999964237213135e-01,-8.164999961853027344e+00,-3.000000026077032089e-03,-4.699999839067459106e-02,5.700000002980232239e-02
2.893654017000000245e+00,-1.343000054359436035e+00,2.849999964237213135e-01,-8.164999961853027344e+00,-3.000000026077032089e-03,-4.699999839067459106e-02,5.700000002980232239e-02
2.907336813000000131e+00,-7.000000216066837311e-03,-4.050000011920928955e-01,-1.156999969482421875e+01,-3.599999845027923584e-02,8.999999612569808960e-03,-3.510000109672546387e-01
2.913869331999999979e+00,-7.000000216066837311e-03,-4.050000011920928955e-01,-1.156999969482421875e+01,-3.599999845027923584e-02,8.999999612569808960e-03,-3.510000109672546387e-01
2.925192628000000017e+00,-1.758999943733215332e+00,1.429000020027160645e+00,-1.515200042724609375e+01,3.700000047683715820e-02,2.400000020861625671e-02,-1.930000036954879761e-01
2.933890610000000176e+00,-1.758999943733215332e+00,1.429000020027160645e+00,-1.515200042724609375e+01,3.700000047683715820e-02,2.400000020861625671e-02,-1.930000036954879761e-01
2.945660888000000366e+00,4.189999997615814209e-01,7.919999957084655762e-01,-1.077499961853027344e+01,-2.099999971687793732e-02,-3.099999949336051941e-02,-2.099999934434890747e-01
2.953568536000000133e+00,4.189999997615814209e-01,7.919999957084655762e-01,-1.077499961853027344e+01,-2.099999971687793732e-02,-3.099999949336051941e-02,-2.099999934434890747e-01
2.964174128000000241e+00,4.189999997615814209e-01,7.919999957084655762e-01,-1.077499961853027344e+01,-2.099999971687793732e-02,-3.099999949336051941e-02,-2.099999934434890747e-01
2.977129295000000120e+00,4.189999997615814209e-01,7.919999957084655762e-01,-1.077499961853027344e+01,-2.099999971687793732e-02,-3.099999949336051941e-02,-2.099999934434890747e-01
2.985263313000000363e+00,4.189999997615814209e-01,7.919999957084655762e-01,-1.077499961853027344e+01,-2.099999971687793732e-02,-3.099999949336051941e-02,-2.099999934434890747e-01
2.995044739000000344e+00,4.189999997615814209e-01,7.919999957084655762e-01,-1.077499961853027344e+01,-2.099999971687793732e-02,-3.099999949336051941e-02,-2.099999934434890747e-01
3.004452202000000405e+00,4.189999997615814209e-01,-4.239999949932098389e-01,-1.112500000000000000e+01,1.200000010430812836e-02,-1.799999922513961792e-02,1.080000028014183044e-01
3.014402628000000028e+00,4.189999997615814209e-01,-4.239999949932098389e-01,-1.112500000000000000e+01,1.200000010430812836e-02,-1.799999922513961792e-02,1.080000028014183044e-01
3.026223480000000077e+00,1.700000017881393433e-01,1.599999964237213135e-01,-1.216899967193603516e+01,3.599999845027923584e-02,3.400000184774398804e-02,7.699999958276748657e-02
3.033607665000000342e+00,1.700000017881393433e-01,1.599999964237213135e-01,-1.216899967193603516e+01,3.599999845027923584e-02,3.400000184774398804e-02,7.699999958276748657e-02
3.043936962000000079e+00,-2.419999986886978149e-01,1.601999998092651367e+00,-1.095699977874755859e+01,2.999999932944774628e-02,-6.800000369548797607e-02,-5.600000172853469849e-02
3.054947406000000143e+00,-2.419999986886978149e-01,1.601999998092651367e+00,-1.095699977874755859e+01,2.999999932944774628e-02,-6.800000369548797607e-02,-5.600000172853469849e-02
3.064972962000000134e+00,-2.700000107288360596e-01,9.120000004768371582e-01,-8.940999984741210938e+00,2.199999988079071045e-02,-7.000000216066837311e-03,-7.000000029802322388e-02
3.074365683999999987e+00,-2.700000107288360596e-01,9.120000004768371582e-01,-8.940999984741210938e+00,2.199999988079071045e-02,-7.000000216066837311e-03,-7.000000029802322388e-02
3.084305628000000077e+00,-1.940000057220458984e-01,8.830000162124633789e-01,-1.165100002288818359e+01,2.400000020861625671e-02,-7.900000363588333130e-02,-1.400000005960464478e-01
3.094086757999999993e+00,-1.940000057220458984e-01,8.830000162124633789e-01,-1.165100002288818359e+01,2.400000020861625671e-02,-7.900000363588333130e-02,-1.400000005960464478e-01
3.104426017000000204e+00,-1.582000017166137695e+00,1.093999981880187988e+00,-4.368000030517578125e+00,3.000000026077032089e-03,-2.700000070035457611e-02,-1.439999938011169434e-01
3.113846387000000160e+00,-1.582000017166137695e+00,1.093999981880187988e+00,-4.368000030517578125e+00,3.000000026077032089e-03,-2.700000070035457611e-02,-1.439999938011169434e-01
3.124180276000000145e+00,-5.479999780654907227e-01,2.419999986886978149e-01,-1.004699993133544922e+01,8.000000379979610443e-03,1.899999938905239105e-02,-1.449999958276748657e-01
3.133928462000000081e+00,-5.479999780654907227e-01,2.419999986886978149e-01,-1.004699993133544922e+01,8.000000379979610443e-03,1.899999938905239105e-02,-1.449999958276748657e-01
3.144112795000000293e+00,2.329999953508377075e-01,2.179999947547912598e-01,-1.049699974060058594e+01,4.000000189989805222e-03,2.400000020861625671e-02,-1.120000034570693970e-01
3.154016386999999977e+00,2.329999953508377075e-01,2.179999947547912598e-01,-1.049699974060058594e+01,4.000000189989805222e-03,2.400000020861625671e-02,-1.120000034570693970e-01
3.163865147000000100e+00,2.899999916553497314e-01,3.420000076293945312e-01,-1.231700038909912109e+01,1.300000026822090149e-02,-1.799999922513961792e-02,-2.400000020861625671e-02
3.174729239000000369e+00,2.899999916553497314e-01,3.420000076293945312e-01,-1.231700038909912109e+01,1.300000026822090149e-02,-1.799999922513961792e-02,-2.400000020861625671e-02
3.185092443000000273e+00,-9.689999818801879883e-01,-9.399999678134918213e-02,-6.868000030517578125e+00,-9.999999776482582092e-03,-9.499999880790710449e-02,-1.070000007748603821e-01
3.193928221000000178e+00,-9.689999818801879883e-01,-9.399999678134918213e-02,-6.868000030517578125e+00,-9.999999776482582092e-03,-9.499999880790710449e-02,-1.070000007748603821e-01
3.204436776000000098e+00,1.521000027656555176e+00,-1.080000028014183044e-01,-8.807000160217285156e+00,-5.000000074505805969e-02,5.299999937415122986e-02,5.600000172853469849e-02
3.214056776000000060e+00,1.521000027656555176e+00,-1.080000028014183044e-01,-8.807000160217285156e+00,-5.000000074505805969e-02,5.299999937415122986e-02,5.600000172853469849e-02
3.223999406000000345e+00,5.099999904632568359e-01,5.149999856948852539e-01,-7.327000141143798828e+00,-3.799999877810478210e-02,3.200000151991844177e-02,8.900000154972076416e-02
3.233701165000000266e+00,5.099999904632568359e-01,5.149999856948852539e-01,-7.327000141143798828e+00,-3.799999877810478210e-02,3.200000151991844177e-02,8.900000154972076416e-02
3.243581480000000017e+00,3.910000026226043701e-01,-2.899999916553497314e-01,-1.002799987792968750e+01,-8.000000379979610443e-03,0.000000000000000000e+00,5.700000002980232239e-02
3.255148369000000041e+00,3.910000026226043701e-01,-2.899999916553497314e-01,-1.002799987792968750e+01,-8.000000379979610443e-03,0.000000000000000000e+00,5.700000002980232239e-02
3.266484443000000404e+00,1.180999994277954102e+00,-2.129999995231628418e-01,-1.077000045776367188e+01,3.000000026077032089e-03,2.199999988079071045e-02,8.900000154972076416e-02
3.273801258000000214e+00,1.180999994277954102e+00,-2.129999995231628418e-01,-1.077000045776367188e+01,3.000000026077032089e-03,2.199999988079071045e-02,8.900000154972076416e-02
3.283504758000000301e+00,1.180999994277954102e+00,-2.129999995231628418e-01,-1.077000045776367188e+01,3.000000026077032089e-03,2.199999988079071045e-02,8.900000154972076416e-02
3.294809998000000295e+00,1.180999994277954102e+00,-2.129999995231628418e-01,-1.077000045776367188e+01,3.000000026077032089e-03,2.199999988079071045e-02,8.900000154972076416e-02
3.304926610000000320e+00,5.009999871253967285e-01,-3.190000057220458984e-01,-1.037300014495849609e+01,1.099999994039535522e-02,-3.999999910593032837e-02,-1.600000075995922089e-02
3.315448869000000354e+00,5.009999871253967285e-01,-3.190000057220458984e-01,-1.037300014495849609e+01,1.099999994039535522e-02,-3.999999910593032837e-02,-1.600000075995922089e-02
3.323495628000000313e+00,5.009999871253967285e-01,-3.190000057220458984e-01,-1.037300014495849609e+01,1.099999994039535522e-02,-3.999999910593032837e-02,-1.600000075995922089e-02
3.334359665000000028e+00,5.009999871253967285e-01,-3.190000057220458984e-01,-1.037300014495849609e+01,1.099999994039535522e-02,-3.999999910593032837e-02,-1.600000075995922089e-02
3.344740332000000205e+00,6.010000109672546387e-01,-1.749999970197677612e-01,-7.926000118255615234e+00,1.899999938905239105e-02,-3.400000184774398804e-02,2.600000053644180298e-02
3.353403869000000093e+00,6.010000109672546387e-01,-1.749999970197677612e-01,-7.926000118255615234e+00,1.899999938905239105e-02,-3.400000184774398804e-02,2.600000053644180298e-02
3.365399980000000291e+00,6.489999890327453613e-01,1.889999955892562866e-01,-1.092800045013427734e+01,8.000000379979610443e-03,-1.200000010430812836e-02,1.799999922513961792e-02
3.374390924000000069e+00,6.489999890327453613e-01,1.889999955892562866e-01,-1.092800045013427734e+01,8.000000379979610443e-03,-1.200000010430812836e-02,1.799999922513961792e-02
3.387398813000000342e+00,1.018000006675720215e+00,1.360000073909759521e-01,-9.673999786376953125e+00,-2.000000094994902611e-03,2.700000070035457611e-02,2.800000086426734924e-02
3.396853147000000295e+00,1.018000006675720215e+00,1.360000073909759521e-01,-9.673999786376953125e+00,-2.000000094994902611e-03,2.700000070035457611e-02,2.800000086426734924e-02
3.405999498000000347e+00,1.018000006675720215e+00,1.360000073909759521e-01,-9.673999786376953125e+00,-2.000000094994902611e-03,2.700000070035457611e-02,2.800000086426734924e-02
3.415793739000000162e+00,1.018000006675720215e+00,1.360000073909759521e-01,-9.673999786376953125e+00,-2.000000094994902611e-03,2.700000070035457611e-02,2.800000086426734924e-02
3.425856776000000270e+00,8.019999861717224121e-01,-9.799999743700027466e-02,-9.682999610900878906e+00,-4.999999888241291046e-03,1.700000092387199402e-02,4.600000008940696716e-02
3.433815091000000042e+00,8.019999861717224121e-01,-9.799999743700027466e-02,-9.682999610900878906e+00,-4.999999888241291046e-03,1.700000092387199402e-02,4.600000008940696716e-02
3.443483480000000263e+00,5.680000185966491699e-01,1.410000026226043701e-01,-8.802000045776367188e+00,1.499999966472387314e-02,-2.400000020861625671e-02,5.700000002980232239e-02
3.453416684000000014e+00,5.680000185966491699e-01,1.410000026226043701e-01,-8.802000045776367188e+00,1.499999966472387314e-02,-2.400000020861625671e-02,5.700000002980232239e-02
3.463455869000000131e+00,1.018000006675720215e+00,-7.689999938011169434e-01,-1.020100021362304688e+01,4.000000189989805222e-03,1.099999994039535522e-02,3.999999910593032837e-02
3.474158035000000311e+00,1.018000006675720215e+00,-7.689999938011169434e-01,-1.020100021362304688e+01,4.000000189989805222e-03,1.099999994039535522e-02,3.999999910593032837e-02
3.483695128000000363e+00,5.289999842643737793e-01,1.509999930858612061e-01,-9.147000312805175781e+00,2.000000094994902611e-03,-1.300000026822090149e-02,4.399999976158142090e-02
3.493621665000000043e+00,5.289999842643737793e-01,1.509999930858612061e-01,-9.147000312805175781e+00,2.000000094994902611e-03,-1.300000026822090149e-02,4.399999976158142090e-02
3.503447646000000137e+00,7.590000033378601074e-01,-9.799999743700027466e-02,-9.807999610900878906e+00,2.000000094994902611e-03,-2.899999916553497314e-02,3.700000047683715820e-02
3.513522035000000265e+00,7.590000033378601074e-01,-9.799999743700027466e-02,-9.807999610900878906e+00,2.000000094994902611e-03,-2.899999916553497314e-02,3.700000047683715820e-02
3.523448683000000248e+00,4.580000042915344238e-01,3.849999904632568359e-01,-9.180999755859375000e+00,-1.899999938905239105e-02,3.000000026077032089e-03,2.500000037252902985e-02
3.533508721000000019e+00,4.580000042915344238e-01,3.849999904632568359e-01,-9.180999755859375000e+00,-1.899999938905239105e-02,3.000000026077032089e-03,2.500000037252902985e-02
3.543526795000000007e+00,-1.940000057220458984e-01,1.677999973297119141e+00,-1.486900043487548828e+01,4.999999888241291046e-03,-3.700000047683715820e-02,-2.800000086426734924e-02
3.553578295000000331e+00,-1.940000057220458984e-01,1.677999973297119141e+00,-1.486900043487548828e+01,4.999999888241291046e-03,-3.700000047683715820e-02,-2.800000086426734924e-02
3.563452054000000313e+00,1.343000054359436035e+00,1.003000020980834961e+00,-1.171899986267089844e+01,-2.199999988079071045e-02,-5.999999865889549255e-02,4.999999888241291046e-03
3.573840017000000202e+00,1.343000054359436035e+00,1.003000020980834961e+00,-1.171899986267089844e+01,-2.199999988079071045e-02,-5.999999865889549255e-02,4.999999888241291046e-03
3.583484850000000055e+00,5.249999761581420898e-01,-6.629999876022338867e-01,-7.336999893188476562e+00,-2.899999916553497314e-02,6.400000303983688354e-02,9.999999776482582092e-03
3.594051869000000288e+00,5.249999761581420898e-01,-6.629999876022338867e-01,-7.336999893188476562e+00,-2.899999916553497314e-02,6.400000303983688354e-02,9.999999776482582092e-03
3.603802702000000302e+00,-1.026999950408935547e+00,-7.059999704360961914e-01,-7.893000125885009766e+00,-2.600000053644180298e-02,-4.699999839067459106e-02,5.099999904632568359e-02
3.615033424000000384e+00,-1.026999950408935547e+00,-7.059999704360961914e-01,-7.893000125885009766e+00,-2.600000053644180298e-02,-4.699999839067459106e-02,5.099999904632568359e-02
3.623431628000000071e+00,-1.026999950408935547e+00,-7.059999704360961914e-01,-7.893000125885009766e+00,-2.600000053644180298e-02,-4.699999839067459106e-02,5.099999904632568359e-02
3.633572832000000030e+00,-1.026999950408935547e+00,-7.059999704360961914e-01,-7.893000125885009766e+00,-2.600000053644180298e-02,-4.699999839067459106e-02,5.099999904632568359e-02
3.643456276000000216e+00,1.113999962806701660e+00,8.349999785423278809e-01,-1.037300014495849609e+01,8.000000379979610443e-03,1.099999994039535522e-02,1.319999992847442627e-01
3.653421702000000160e+00,1.113999962806701660e+00,8.349999785423278809e-01,-1.037300014495849609e+01,8.000000379979610443e-03,1.099999994039535522e-02,1.319999992847442627e-01
3.663633054000000389e+00,1.138000011444091797e+00,-6.060000061988830566e-01,-8.753999710083007812e+00,-1.499999966472387314e-02,9.300000220537185669e-02,-4.600000008940696716e-02
3.673619128000000345e+00,1.138000011444091797e+00,-6.060000061988830566e-01,-8.753999710083007812e+00,-1.499999966472387314e-02,9.300000220537185669e-02,-4.600000008940696716e-02
3.683513091000000017e+00,1.138000011444091797e+00,-6.060000061988830566e-01,-8.753999710083007812e+00,-1.499999966472387314e-02,9.300000220537185669e-02,-4.600000008940696716e-02
3.694899906000000289e+00,1.138000011444091797e+00,-6.060000061988830566e-01,-8.753999710083007812e+00,-1.499999966472387314e-02,9.300000220537185669e-02,-4.600000008940696716e-02
3.704238498000000046e+00,1.133000016212463379e+00,1.080000028014183044e-01,-1.225000000000000000e+01,-2.199999988079071045e-02,4.399999976158142090e-02,7.199999690055847168e-02
3.713505091000000036e+00,1.133000016212463379e+00,1.080000028014183044e-01,-1.225000000000000000e+01,-2.199999988079071045e-02,4.399999976158142090e-02,7.199999690055847168e-02
3.723487424000000434e+00,-2.509999871253967285e-01,-1.055999994277954102e+00,-1.148900032043457031e+01,1.200000010430812836e-02,-9.300000220537185669e-02,4.000000189989805222e-03
3.733638183000000055e+00,-2.509999871253967285e-01,-1.055999994277954102e+00,-1.148900032043457031e+01,1.200000010430812836e-02,-9.300000220537185669e-02,4.000000189989805222e-03
3.743688683000000239e+00,2.610000073909759521e-01,-2.280000001192092896e-01,-1.453400039672851562e+01,9.999999776482582092e-03,4.000000189989805222e-03,-1.099999994039535522e-01
3.753489239000000310e+00,2.610000073909759521e-01,-2.280000001192092896e-01,-1.453400039672851562e+01,9.999999776482582092e-03,4.000000189989805222e-03,-1.099999994039535522e-01
3.763521332000000275e+00,2.610000073909759521e-01,-2.280000001192092896e-01,-1.453400039672851562e+01,9.999999776482582092e-03,4.000000189989805222e-03,-1.099999994039535522e-01
3.774564887000000368e+00,2.610000073909759521e-01,-2.280000001192092896e-01,-1.453400039672851562e+01,9.999999776482582092e-03,4.000000189989805222e-03,-1.099999994039535522e-01
3.783822961000000262e+00,-7.059999704360961914e-01,-1.410000026226043701e-01,-9.414999961853027344e+00,-1.000000047497451305e-03,-6.100000068545341492e-02,2.700000070035457611e-02
3.793703665000000225e+00,-7.059999704360961914e-01,-1.410000026226043701e-01,-9.414999961853027344e+00,-1.000000047497451305e-03,-6.100000068545341492e-02,2.700000070035457611e-02
3.803881646000000227e+00,-7.000000216066837311e-03,2.700000107288360596e-01,-1.099100017547607422e+01,1.700000092387199402e-02,-3.000000026077032089e-03,-3.999999910593032837e-02
3.813881554000000396e+00,-7.000000216066837311e-03,2.700000107288360596e-01,-1.099100017547607422e+01,1.700000092387199402e-02,-3.000000026077032089e-03,-3.999999910593032837e-02
3.823756906000000289e+00,-1.120000034570693970e-01,-8.740000128746032715e-01,-1.051700019836425781e+01,2.700000070035457611e-02,-2.400000020861625671e-02,-1.089999973773956299e-01
3.833629387000000222e+00,-1.120000034570693970e-01,-8.740000128746032715e-01,-1.051700019836425781e+01,2.700000070035457611e-02,-2.400000020861625671e-02,-1.089999973773956299e-01
3.843602313000000326e+00,8.410000205039978027e-01,-3.810000121593475342e-01,-9.189999580383300781e+00,-1.300000026822090149e-02,2.700000070035457611e-02,-1.300000026822090149e-02
3.853676480000000293e+00,8.410000205039978027e-01,-3.810000121593475342e-01,-9.189999580383300781e+00,-1.300000026822090149e-02,2.700000070035457611e-02,-1.300000026822090149e-02
3.863637739000000071e+00,1.396000027656555176e+00,-5.999999865889549255e-02,-9.036999702453613281e+00,-3.000000026077032089e-03,8.200000226497650146e-02,5.900000035762786865e-02
3.873764961000000451e+00,1.396000027656555176e+00,-5.999999865889549255e-02,-9.036999702453613281e+00,-3.000000026077032089e-03,8.200000226497650146e-02,5.900000035762786865e-02
3.883478980000000025e+00,5.730000138282775879e-01,-9.219999909400939941e-01,-9.472999572753906250e+00,1.400000043213367462e-02,-7.699999958276748657e-02,3.000000026077032089e-03
3.893560331000000208e+00,5.730000138282775879e-01,-9.219999909400939941e-01,-9.472999572753906250e+00,1.400000043213367462e-02,-7.699999958276748657e-02,3.000000026077032089e-03
3.903512794000000063e+00,6.010000109672546387e-01,7.590000033378601074e-01,-9.362999916076660156e+00,-4.000000189989805222e-03,2.800000086426734924e-02,1.400000005960464478e-01
3.913812461000000464e+00,6.010000109672546387e-01,7.590000033378601074e-01,-9.362999916076660156e+00,-4.000000189989805222e-03,2.800000086426734924e-02,1.400000005960464478e-01
3.923465331000000056e+00,9.219999909400939941e-01,-5.009999871253967285e-01,-9.286000251770019531e+00,4.999999888241291046e-03,-3.599999845027923584e-02,5.999999865889549255e-02
3.933482739000000450e+00,9.219999909400939941e-01,-5.009999871253967285e-01,-9.286000251770019531e+00,4.999999888241291046e-03,-3.599999845027923584e-02,5.999999865889549255e-02
3.943469813000000102e+00,7.540000081062316895e-01,2.800000011920928955e-01,-1.014299964904785156e+01,4.999999888241291046e-03,1.000000047497451305e-03,-8.000000379979610443e-03
3.953816739000000080e+00,7.540000081062316895e-01,2.800000011920928955e-01,-1.014299964904785156e+01,4.999999888241291046e-03,1.000000047497451305e-03,-8.000000379979610443e-03
3.964450683000000364e+00,1.609999984502792358e-01,-3.330000042915344238e-01,-9.251999855041503906e+00,9.999999776482582092e-03,-4.199999943375587463e-02,-5.000000074505805969e-02
3.973470609000000042e+00,1.609999984502792358e-01,-3.330000042915344238e-01,-9.251999855041503906e+00,9.999999776482582092e-03,-4.199999943375587463e-02,-5.000000074505805969e-02
3.984573980000000404e+00,1.609999984502792358e-01,-3.330000042915344238e-01,-9.251999855041503906e+00,9.999999776482582092e-03,-4.199999943375587463e-02,-5.000000074505805969e-02
3.993718905000000152e+00,1.609999984502792358e-01,-3.330000042915344238e-01,-9.251999855041503906e+00,9.999999776482582092e-03,-4.199999943375587463e-02,-5.000000074505805969e-02
4.004393128000000246e+00,5.820000171661376953e-01,3.039999902248382568e-01,-9.682999610900878906e+00,-2.000000094994902611e-03,1.200000010430812836e-02,4.300000146031379700e-02
4.014033887000000078e+00,5.820000171661376953e-01,3.039999902248382568e-01,-9.682999610900878906e+00,-2.000000094994902611e-03,1.200000010430812836e-02,4.300000146031379700e-02
4.025508202000000146e+00,-1.562999963760375977e+00,5.999999865889549255e-02,-3.578000068664550781e+00,2.300000004470348358e-02,-1.190000027418136597e-01,4.999999888241291046e-03
4.033437776000000419e+00,-1.562999963760375977e+00,5.999999865889549255e-02,-3.578000068664550781e+00,2.300000004470348358e-02,-1.190000027418136597e-01,4.999999888241291046e-03
4.043719349999999935e+00,-1.562999963760375977e+00,5.999999865889549255e-02,-3.578000068664550781e+00,2.300000004470348358e-02,-1.190000027418136597e-01,4.999999888241291046e-03
4.053568145999999928e+00,-1.562999963760375977e+00,5.999999865889549255e-02,-3.578000068664550781e+00,2.300000004470348358e-02,-1.190000027418136597e-01,4.999999888241291046e-03
4.063533091000000042e+00,3.546000003814697266e+00,-2.220000028610229492e+00,-8.175000190734863281e+00,2.500000037252902985e-02,1.330000013113021851e-01,-3.310000002384185791e-01
4.074518535000000163e+00,3.546000003814697266e+00,-2.220000028610229492e+00,-8.175000190734863281e+00,2.500000037252902985e-02,1.330000013113021851e-01,-3.310000002384185791e-01
4.083702331000000463e+00,-1.764000058174133301e+00,2.880000114440917969e+00,-1.136900043487548828e+01,-1.000000047497451305e-03,-3.070000112056732178e-01,1.000000047497451305e-03
4.093734794000000399e+00,-1.764000058174133301e+00,2.880000114440917969e+00,-1.136900043487548828e+01,-1.000000047497451305e-03,-3.070000112056732178e-01,1.000000047497451305e-03
4.103507683000000128e+00,-4.709999859333038330e-01,-1.208999991416931152e+00,-1.018599987030029297e+01,4.999999888241291046e-03,3.500000014901161194e-02,1.299999952316284180e-01
4.113727424000000354e+00,-4.709999859333038330e-01,-1.208999991416931152e+00,-1.018599987030029297e+01,4.999999888241291046e-03,3.500000014901161194e-02,1.299999952316284180e-01
4.123507979000000212e+00,-4.709999859333038330e-01,-1.208999991416931152e+00,-1.018599987030029297e+01,4.999999888241291046e-03,3.500000014901161194e-02,1.299999952316284180e-01
4.133462998000000610e+00,-4.709999859333038330e-01,-1.208999991416931152e+00,-1.018599987030029297e+01,4.999999888241291046e-03,3.500000014901161194e-02,1.299999952316284180e-01
4.143511035000000398e+00,-9.649999737739562988e-01,1.118000030517578125e+00,-9.074999809265136719e+00,-4.999999888241291046e-03,-2.400000020861625671e-02,1.799999922513961792e-02
4.153686053000000378e+00,-9.649999737739562988e-01,1.118000030517578125e+00,-9.074999809265136719e+00,-4.999999888241291046e-03,-2.400000020861625671e-02,1.799999922513961792e-02
4.163613441999999942e+00,-1.309999972581863403e-01,-9.599999785423278809e-01,-9.703000068664550781e+00,3.000000026077032089e-03,3.200000151991844177e-02,2.600000053644180298e-02
4.174221461000000133e+00,-1.309999972581863403e-01,-9.599999785423278809e-01,-9.703000068664550781e+00,3.000000026077032089e-03,3.200000151991844177e-02,2.600000053644180298e-02
4.183828867999999979e+00,1.420000046491622925e-01,3.179999887943267822e-01,-1.011900043487548828e+01,-3.000000026077032089e-03,-8.999999612569808960e-03,-4.999999888241291046e-03
4.195430757000000455e+00,1.700000017881393433e-01,2.319999933242797852e-01,-9.387000083923339844e+00,3.000000026077032089e-03,4.000000189989805222e-03,-4.999999888241291046e-03
4.203505776000000083e+00,1.700000017881393433e-01,2.319999933242797852e-01,-9.387000083923339844e+00,3.000000026077032089e-03,4.000000189989805222e-03,-4.999999888241291046e-03
4.216394886999999869e+00,1.319999992847442627e-01,-3.190000057220458984e-01,-9.770000457763671875e+00,-2.000000094994902611e-03,-7.000000216066837311e-03,1.799999922513961792e-02
4.223452572000000238e+00,1.319999992847442627e-01,-3.190000057220458984e-01,-9.770000457763671875e+00,-2.000000094994902611e-03,-7.000000216066837311e-03,1.799999922513961792e-02
4.234240350000000319e+00,1.319999992847442627e-01,-3.190000057220458984e-01,-9.770000457763671875e+00,-2.000000094994902611e-03,-7.000000216066837311e-03,1.799999922513961792e-02
4.243622404999999986e+00,-1.120000034570693970e-01,3.230000138282775879e-01,-8.940999984741210938e+00,-1.000000047497451305e-03,-4.999999888241291046e-03,-0.000000000000000000e+00
4.254363016000000108e+00,-1.120000034570693970e-01,3.230000138282775879e-01,-8.940999984741210938e+00,-1.000000047497451305e-03,-4.999999888241291046e-03,-0.000000000000000000e+00
4.263617368000000241e+00,-6.400000303983688354e-02,-2.419999986886978149e-01,-9.836999893188476562e+00,4.000000189989805222e-03,-3.000000026077032089e-03,6.000000052154064178e-03
4.274665424000000158e+00,-6.400000303983688354e-02,-2.419999986886978149e-01,-9.836999893188476562e+00,4.000000189989805222e-03,-3.000000026077032089e-03,6.000000052154064178e-03
4.283852887000000109e+00,3.099999949336051941e-02,1.120000034570693970e-01,-9.717000007629394531e+00,-3.000000026077032089e-03,-1.000000047497451305e-03,6.000000052154064178e-03
4.293508294000000447e+00,3.099999949336051941e-02,1.120000034570693970e-01,-9.717000007629394531e+00,-3.000000026077032089e-03,-1.000000047497451305e-03,6.000000052154064178e-03
4.303641942000000498e+00,8.399999886751174927e-02,8.799999952316284180e-02,-9.779000282287597656e+00,-1.000000047497451305e-03,-2.000000094994902611e-03,4.999999888241291046e-03
4.313866776000000236e+00,8.399999886751174927e-02,8.799999952316284180e-02,-9.779000282287597656e+00,-1.000000047497451305e-03,-2.000000094994902611e-03,4.999999888241291046e-03
4.323634702000000551e+00,-4.500000178813934326e-02,-1.030000001192092896e-01,-9.668999671936035156e+00,-2.000000094994902611e-03,-4.000000189989805222e-03,8.000000379979610443e-03
4.333496424000000680e+00,-4.500000178813934326e-02,-1.030000001192092896e-01,-9.668999671936035156e+00,-2.000000094994902611e-03,-4.000000189989805222e-03,8.000000379979610443e-03
4.343835072000000075e+00,-4.500000178813934326e-02,-1.030000001192092896e-01,-9.668999671936035156e+00,-2.000000094994902611e-03,-4.000000189989805222e-03,8.000000379979610443e-03
4.353552016000000080e+00,-4.500000178813934326e-02,-1.030000001192092896e-01,-9.668999671936035156e+00,-2.000000094994902611e-03,-4.000000189989805222e-03,8.000000379979610443e-03
4.363750553000000032e+00,9.799999743700027466e-02,-1.410000026226043701e-01,-9.706999778747558594e+00,1.000000047497451305e-03,-1.000000047497451305e-03,8.000000379979610443e-03
4.373540368000000456e+00,9.799999743700027466e-02,-1.410000026226043701e-01,-9.706999778747558594e+00,1.000000047497451305e-03,-1.000000047497451305e-03,8.000000379979610443e-03
4.383711589999999880e+00,1.200000010430812836e-02,9.300000220537185669e-02,-9.703000068664550781e+00,-3.000000026077032089e-03,-4.000000189989805222e-03,4.999999888241291046e-03
4.393863072000000258e+00,1.200000010430812836e-02,9.300000220537185669e-02,-9.703000068664550781e+00,-3.000000026077032089e-03,-4.000000189989805222e-03,4.999999888241291046e-03
4.403483961000000058e+00,1.200000010430812836e-02,9.300000220537185669e-02,-9.703000068664550781e+00,-3.000000026077032089e-03,-4.000000189989805222e-03,4.999999888241291046e-03
4.418471349999999909e+00,1.200000010430812836e-02,9.300000220537185669e-02,-9.703000068664550781e+00,-3.000000026077032089e-03,-4.000000189989805222e-03,4.999999888241291046e-03
4.423609942000000572e+00,-2.000000094994902611e-03,-5.000000074505805969e-02,-9.630999565124511719e+00,-3.000000026077032089e-03,0.000000000000000000e+00,7.000000216066837311e-03
4.433712220000000315e+00,-2.000000094994902611e-03,-5.000000074505805969e-02,-9.630999565124511719e+00,-3.000000026077032089e-03,0.000000000000000000e+00,7.000000216066837311e-03
4.443555572000000176e+00,5.999999865889549255e-02,2.099999971687793732e-02,-9.703000068664550781e+00,-2.000000094994902611e-03,-2.000000094994902611e-03,6.000000052154064178e-03
4.454343904999999992e+00,5.999999865889549255e-02,2.099999971687793732e-02,-9.703000068664550781e+00,-2.000000094994902611e-03,-2.000000094994902611e-03,6.000000052154064178e-03
4.463509238000000323e+00,-7.000000216066837311e-03,-5.000000074505805969e-02,-9.635999679565429688e+00,-2.000000094994902611e-03,-3.000000026077032089e-03,8.000000379979610443e-03
4.473582293999999848e+00,-7.000000216066837311e-03,-5.000000074505805969e-02,-9.635999679565429688e+00,-2.000000094994902611e-03,-3.000000026077032089e-03,8.000000379979610443e-03
4.483837552999999865e+00,-7.000000216066837311e-03,-5.000000074505805969e-02,-9.635999679565429688e+00,-2.000000094994902611e-03,-3.000000026077032089e-03,8.000000379979610443e-03
4.493487701000000278e+00,-7.000000216066837311e-03,-5.000000074505805969e-02,-9.635999679565429688e+00,-2.000000094994902611e-03,-3.000000026077032089e-03,8.000000379979610443e-03
4.503483663999999997e+00,-2.099999971687793732e-02,-5.000000074505805969e-02,-9.588000297546386719e+00,-2.000000094994902611e-03,-1.000000047497451305e-03,7.000000216066837311e-03
4.513537423999999909e+00,-2.099999971687793732e-02,-5.000000074505805969e-02,-9.588000297546386719e+00,-2.000000094994902611e-03,-1.000000047497451305e-03,7.000000216066837311e-03
4.523690737999999989e+00,-2.099999971687793732e-02,-2.600000053644180298e-02,-9.746000289916992188e+00,-2.000000094994902611e-03,-3.000000026077032089e-03,6.000000052154064178e-03
4.533680590000000343e+00,-2.099999971687793732e-02,-2.600000053644180298e-02,-9.746000289916992188e+00,-2.000000094994902611e-03,-3.000000026077032089e-03,6.000000052154064178e-03
4.543724572000000350e+00,7.000000216066837311e-03,2.000000094994902611e-03,-9.649999618530273438e+00,-2.000000094994902611e-03,-2.000000094994902611e-03,7.000000216066837311e-03
4.553502775000000113e+00,7.000000216066837311e-03,2.000000094994902611e-03,-9.649999618530273438e+00,-2.000000094994902611e-03,-2.000000094994902611e-03,7.000000216066837311e-03
4.563483424000000177e+00,2.199999988079071045e-02,-4.100000113248825073e-02,-9.630999565124511719e+00,-1.000000047497451305e-03,-3.000000026077032089e-03,7.000000216066837311e-03
4.573664424000000395e+00,2.199999988079071045e-02,-4.100000113248825073e-02,-9.630999565124511719e+00,-1.000000047497451305e-03,-3.000000026077032089e-03,7.000000216066837311e-03
4.583616350000000672e+00,3.000000026077032089e-03,-6.499999761581420898e-02,-9.630999565124511719e+00,1.000000047497451305e-03,-2.000000094994902611e-03,6.000000052154064178e-03
4.593711589999999845e+00,3.000000026077032089e-03,-6.499999761581420898e-02,-9.630999565124511719e+00,1.000000047497451305e-03,-2.000000094994902611e-03,6.000000052154064178e-03
4.603502572000000015e+00,-2.600000053644180298e-02,-1.200000010430812836e-02,-9.706999778747558594e+00,-2.000000094994902611e-03,-3.000000026077032089e-03,7.000000216066837311e-03
4.613744479000000176e+00,-2.600000053644180298e-02,-1.200000010430812836e-02,-9.706999778747558594e+00,-2.000000094994902611e-03,-3.000000026077032089e-03,7.000000216066837311e-03
4.623704775000000211e+00,2.199999988079071045e-02,3.099999949336051941e-02,-9.663999557495117188e+00,-2.000000094994902611e-03,-2.000000094994902611e-03,6.000000052154064178e-03
4.633443738000000423e+00,2.199999988079071045e-02,3.099999949336051941e-02,-9.663999557495117188e+00,-2.000000094994902611e-03,-2.000000094994902611e-03,6.000000052154064178e-03
4.643446961000000428e+00,2.199999988079071045e-02,-5.000000074505805969e-02,-9.545000076293945312e+00,-1.000000047497451305e-03,-2.000000094994902611e-03,7.000000216066837311e-03
4.653807035000000702e+00,2.199999988079071045e-02,-5.000000074505805969e-02,-9.545000076293945312e+00,-1.000000047497451305e-03,-2.000000094994902611e-03,7.000000216066837311e-03
4.663696498000000190e+00,-1.600000075995922089e-02,-2.600000053644180298e-02,-9.673999786376953125e+00,-1.000000047497451305e-03,-3.000000026077032089e-03,6.000000052154064178e-03
4.673712183000000131e+00,-1.600000075995922089e-02,-2.600000053644180298e-02,-9.673999786376953125e+00,-1.000000047497451305e-03,-3.000000026077032089e-03,6.000000052154064178e-03
4.683525535000000239e+00,7.000000216066837311e-03,-2.600000053644180298e-02,-9.717000007629394531e+00,-1.000000047497451305e-03,-2.000000094994902611e-03,6.000000052154064178e-03
4.693661535000000384e+00,7.000000216066837311e-03,-2.600000053644180298e-02,-9.717000007629394531e+00,-1.000000047497451305e-03,-2.000000094994902611e-03,6.000000052154064178e-03
4.703467257000000679e+00,7.000000216066837311e-03,-2.600000053644180298e-02,-9.717000007629394531e+00,-1.000000047497451305e-03,-2.000000094994902611e-03,6.000000052154064178e-03
4.713576738000000432e+00,7.000000216066837311e-03,-2.600000053644180298e-02,-9.717000007629394531e+00,-1.000000047497451305e-03,-2.000000094994902611e-03,6.000000052154064178e-03
4.723631886000000613e+00,-2.000000094994902611e-03,-3.000000026077032089e-03,-9.564000129699707031e+00,-1.000000047497451305e-03,-3.000000026077032089e-03,4.999999888241291046e-03
4.733454775000000225e+00,-2.000000094994902611e-03,-3.000000026077032089e-03,-9.564000129699707031e+00,-1.000000047497451305e-03,-3.000000026077032089e-03,4.999999888241291046e-03
4.743463035000000438e+00,-3.099999949336051941e-02,-3.599999845027923584e-02,-9.588000297546386719e+00,-1.000000047497451305e-03,-3.000000026077032089e-03,8.000000379979610443e-03
4.753593572000000655e+00,-3.099999949336051941e-02,-3.599999845027923584e-02,-9.588000297546386719e+00,-1.000000047497451305e-03,-3.000000026077032089e-03,8.000000379979610443e-03
4.763564220000000127e+00,-3.099999949336051941e-02,-3.599999845027923584e-02,-9.588000297546386719e+00,-1.000000047497451305e-03,-3.000000026077032089e-03,8.000000379979610443e-03
4.773946812000000151e+00,-3.099999949336051941e-02,-3.599999845027923584e-02,-9.588000297546386719e+00,-1.000000047497451305e-03,-3.000000026077032089e-03,8.000000379979610443e-03
4.783500442000000241e+00,4.600000008940696716e-02,1.200000010430812836e-02,-9.692999839782714844e+00,-2.000000094994902611e-03,-4.000000189989805222e-03,7.000000216066837311e-03
4.793498979000000659e+00,4.600000008940696716e-02,1.200000010430812836e-02,-9.692999839782714844e+00,-2.000000094994902611e-03,-4.000000189989805222e-03,7.000000216066837311e-03
4.803494367999999959e+00,-2.099999971687793732e-02,-3.099999949336051941e-02,-9.602000236511230469e+00,1.000000047497451305e-03,-3.000000026077032089e-03,7.000000216066837311e-03
4.813504979000000183e+00,-2.099999971687793732e-02,-3.099999949336051941e-02,-9.602000236511230469e+00,1.000000047497451305e-03,-3.000000026077032089e-03,7.000000216066837311e-03
4.823500867999999997e+00,1.700000092387199402e-02,-7.000000216066837311e-03,-9.602000236511230469e+00,-1.000000047497451305e-03,-2.000000094994902611e-03,8.000000379979610443e-03
4.833696516000000720e+00,1.700000092387199402e-02,-7.000000216066837311e-03,-9.602000236511230469e+00,-1.000000047497451305e-03,-2.000000094994902611e-03,8.000000379979610443e-03
4.843464609000000642e+00,1.700000092387199402e-02,-7.000000216066837311e-03,-9.602000236511230469e+00,-1.000000047497451305e-03,-2.000000094994902611e-03,8.000000379979610443e-03
4.853805015999999917e+00,1.700000092387199402e-02,-7.000000216066837311e-03,-9.602000236511230469e+00,-1.000000047497451305e-03,-2.000000094994902611e-03,8.000000379979610443e-03
4.863458238000000655e+00,-2.000000094994902611e-03,-1.700000092387199402e-02,-9.649999618530273438e+00,-2.000000094994902611e-03,-4.000000189989805222e-03,6.000000052154064178e-03
4.873471885999999920e+00,-2.000000094994902611e-03,-1.700000092387199402e-02,-9.649999618530273438e+00,-2.000000094994902611e-03,-4.000000189989805222e-03,6.000000052154064178e-03
4.883474794000000507e+00,-2.600000053644180298e-02,-7.000000216066837311e-03,-9.612000465393066406e+00,-1.000000047497451305e-03,-2.000000094994902611e-03,7.000000216066837311e-03
4.893648201000000419e+00,-2.600000053644180298e-02,-7.000000216066837311e-03,-9.612000465393066406e+00,-1.000000047497451305e-03,-2.000000094994902611e-03,7.000000216066837311e-03
4.903484479000000285e+00,-1.200000010430812836e-02,-1.700000092387199402e-02,-9.597000122070312500e+00,-2.000000094994902611e-03,-3.000000026077032089e-03,7.000000216066837311e-03
4.913535553000000000e+00,-1.200000010430812836e-02,-1.700000092387199402e-02,-9.597000122070312500e+00,-2.000000094994902611e-03,-3.000000026077032089e-03,7.000000216066837311e-03
4.923551848999999869e+00,5.499999970197677612e-02,-3.000000026077032089e-03,-9.774000167846679688e+00,-1.000000047497451305e-03,-3.000000026077032089e-03,6.000000052154064178e-03
4.933483701000000110e+00,5.499999970197677612e-02,-3.000000026077032089e-03,-9.774000167846679688e+00,-1.000000047497451305e-03,-3.000000026077032089e-03,6.000000052154064178e-03
4.943447368000000175e+00,7.000000216066837311e-03,3.099999949336051941e-02,-9.645000457763671875e+00,-1.000000047497451305e-03,-2.000000094994902611e-03,6.000000052154064178e-03
4.954260757000000126e+00,7.000000216066837311e-03,3.099999949336051941e-02,-9.645000457763671875e+00,-1.000000047497451305e-03,-2.000000094994902611e-03,6.000000052154064178e-03
4.963553627000000468e+00,3.599999845027923584e-02,7.000000216066837311e-03,-9.567999839782714844e+00,1.000000047497451305e-03,-3.000000026077032089e-03,7.000000216066837311e-03
4.973440257000000031e+00,3.599999845027923584e-02,7.000000216066837311e-03,-9.567999839782714844e+00,1.000000047497451305e-03,-3.000000026077032089e-03,7.000000216066837311e-03
4.983523886000000402e+00,-4.500000178813934326e-02,-2.600000053644180298e-02,-9.572999954223632812e+00,-2.000000094994902611e-03,-4.000000189989805222e-03,6.000000052154064178e-03
4.994113331000000322e+00,-4.500000178813934326e-02,-2.600000053644180298e-02,-9.572999954223632812e+00,-2.000000094994902611e-03,-4.000000189989805222e-03,6.000000052154064178e-03
5.003400609000000721e+00,2.199999988079071045e-02,-3.000000026077032089e-03,-9.736000061035156250e+00,-1.000000047497451305e-03,-3.000000026077032089e-03,6.000000052154064178e-03
5.013452126999999869e+00,2.199999988079071045e-02,-3.000000026077032089e-03,-9.736000061035156250e+00,-1.000000047497451305e-03,-3.000000026077032089e-03,6.000000052154064178e-03
5.023453979000000125e+00,1.200000010430812836e-02,1.200000010430812836e-02,-9.588000297546386719e+00,-1.000000047497451305e-03,-3.000000026077032089e-03,7.000000216066837311e-03
5.033420830999999929e+00,1.200000010430812836e-02,1.200000010430812836e-02,-9.588000297546386719e+00,-1.000000047497451305e-03,-3.000000026077032089e-03,7.000000216066837311e-03
5.043482589999999988e+00,-1.200000010430812836e-02,-1.700000092387199402e-02,-9.597000122070312500e+00,-1.000000047497451305e-03,-2.000000094994902611e-03,6.000000052154064178e-03
5.053462405000000324e+00,-1.200000010430812836e-02,-1.700000092387199402e-02,-9.597000122070312500e+00,-1.000000047497451305e-03,-2.000000094994902611e-03,6.000000052154064178e-03
5.063472164000000220e+00,-1.200000010430812836e-02,-1.700000092387199402e-02,-9.597000122070312500e+00,-1.000000047497451305e-03,-2.000000094994902611e-03,6.000000052154064178e-03
5.073971238000000383e+00,-1.200000010430812836e-02,-1.700000092387199402e-02,-9.597000122070312500e+00,-1.000000047497451305e-03,-2.000000094994902611e-03,6.000000052154064178e-03
5.083507385999999961e+00,-7.000000216066837311e-03,-4.100000113248825073e-02,-9.678999900817871094e+00,-1.000000047497451305e-03,-3.000000026077032089e-03,7.000000216066837311e-03
5.093448608000000100e+00,-7.000000216066837311e-03,-4.100000113248825073e-02,-9.678999900817871094e+00,-1.000000047497451305e-03,-3.000000026077032089e-03,7.000000216066837311e-03
5.103565146000000219e+00,3.099999949336051941e-02,-1.700000092387199402e-02,-9.654999732971191406e+00,-2.000000094994902611e-03,-3.000000026077032089e-03,7.000000216066837311e-03
5.113428016000000298e+00,3.099999949336051941e-02,-1.700000092387199402e-02,-9.654999732971191406e+00,-2.000000094994902611e-03,-3.000000026077032089e-03,7.000000216066837311e-03
5.123423831000000206e+00,3.099999949336051941e-02,-1.700000092387199402e-02,-9.654999732971191406e+00,-2.000000094994902611e-03,-3.000000026077032089e-03,7.000000216066837311e-03
5.133473164000000644e+00,3.099999949336051941e-02,-1.700000092387199402e-02,-9.654999732971191406e+00,-2.000000094994902611e-03,-3.000000026077032089e-03,7.000000216066837311e-03
5.143633701000000613e+00,-2.000000094994902611e-03,-5.499999970197677612e-02,-9.649999618530273438e+00,-1.000000047497451305e-03,-2.000000094994902611e-03,7.000000216066837311e-03
5.153425238000000519e+00,-2.000000094994902611e-03,-5.499999970197677612e-02,-9.649999618530273438e+00,-1.000000047497451305e-03,-2.000000094994902611e-03,7.000000216066837311e-03
5.163752367999999926e+00,3.000000026077032089e-03,-3.000000026077032089e-03,-9.730999946594238281e+00,-2.000000094994902611e-03,-1.000000047497451305e-03,6.000000052154064178e-03
5.173412683000000456e+00,3.000000026077032089e-03,-3.000000026077032089e-03,-9.730999946594238281e+00,-2.000000094994902611e-03,-1.000000047497451305e-03,6.000000052154064178e-03
5.183518257000000240e+00,-2.600000053644180298e-02,-5.000000074505805969e-02,-9.640000343322753906e+00,-2.000000094994902611e-03,-3.000000026077032089e-03,4.999999888241291046e-03
5.193538257000000158e+00,-2.600000053644180298e-02,-5.000000074505805969e-02,-9.640000343322753906e+00,-2.000000094994902611e-03,-3.000000026077032089e-03,4.999999888241291046e-03
5.203412312000000206e+00,-2.600000053644180298e-02,-5.000000074505805969e-02,-9.640000343322753906e+00,-2.000000094994902611e-03,-3.000000026077032089e-03,4.999999888241291046e-03
5.213452108000000251e+00,-2.600000053644180298e-02,-5.000000074505805969e-02,-9.640000343322753906e+00,-2.000000094994902611e-03,-3.000000026077032089e-03,4.999999888241291046e-03
5.223479257000000153e+00,-2.000000094994902611e-03,-7.000000216066837311e-03,-9.673999786376953125e+00,-1.000000047497451305e-03,-2.000000094994902611e-03,6.000000052154064178e-03
5.233424405000000057e+00,-2.000000094994902611e-03,-7.000000216066837311e-03,-9.673999786376953125e+00,-1.000000047497451305e-03,-2.000000094994902611e-03,6.000000052154064178e-03
5.243413681999999909e+00,4.100000113248825073e-02,-1.200000010430812836e-02,-9.682999610900878906e+00,-2.000000094994902611e-03,-3.000000026077032089e-03,6.000000052154064178e-03
5.253540182000000058e+00,4.100000113248825073e-02,-1.200000010430812836e-02,-9.682999610900878906e+00,-2.000000094994902611e-03,-3.000000026077032089e-03,6.000000052154064178e-03
5.263506145000000025e+00,4.100000113248825073e-02,-3.099999949336051941e-02,-9.578000068664550781e+00,-1.000000047497451305e-03,-3.000000026077032089e-03,7.000000216066837311e-03
5.273439719000000636e+00,4.100000113248825073e-02,-3.099999949336051941e-02,-9.578000068664550781e+00,-1.000000047497451305e-03,-3.000000026077032089e-03,7.000000216066837311e-03
5.283682201000000411e+00,-2.099999971687793732e-02,-3.599999845027923584e-02,-9.616000175476074219e+00,1.000000047497451305e-03,-2.000000094994902611e-03,6.000000052154064178e-03
5.293444757000000500e+00,-2.099999971687793732e-02,-3.599999845027923584e-02,-9.616000175476074219e+00,1.000000047497451305e-03,-2.000000094994902611e-03,6.000000052154064178e-03
5.303558757000000234e+00,3.599999845027923584e-02,7.000000216066837311e-03,-9.692999839782714844e+00,1.000000047497451305e-03,-2.000000094994902611e-03,6.000000052154064178e-03
5.313594590000000117e+00,3.599999845027923584e-02,7.000000216066837311e-03,-9.692999839782714844e+00,1.000000047497451305e-03,-2.000000094994902611e-03,6.000000052154064178e-03
5.323422738000000543e+00,1.700000092387199402e-02,-1.200000010430812836e-02,-9.703000068664550781e+00,-2.000000094994902611e-03,-2.000000094994902611e-03,7.000000216066837311e-03
5.333727868000000427e+00,1.700000092387199402e-02,-1.200000010430812836e-02,-9.703000068664550781e+00,-2.000000094994902611e-03,-2.000000094994902611e-03,7.000000216066837311e-03
5.343386978999999926e+00,-1.200000010430812836e-02,-2.600000053644180298e-02,-9.597000122070312500e+00,-1.000000047497451305e-03,-3.000000026077032089e-03,7.000000216066837311e-03
5.353452960000000260e+00,-1.200000010430812836e-02,-2.600000053644180298e-02,-9.597000122070312500e+00,-1.000000047497451305e-03,-3.000000026077032089e-03,7.000000216066837311e-03
5.363502108000000490e+00,-3.599999845027923584e-02,7.000000216066837311e-03,-9.597000122070312500e+00,-2.000000094994902611e-03,-2.000000094994902611e-03,7.000000216066837311e-03
5.373451775000000374e+00,-3.599999845027923584e-02,7.000000216066837311e-03,-9.597000122070312500e+00,-2.000000094994902611e-03,-2.000000094994902611e-03,7.000000216066837311e-03
5.383494645000000745e+00,4.600000008940696716e-02,-3.000000026077032089e-03,-9.645000457763671875e+00,1.000000047497451305e-03,-2.000000094994902611e-03,4.999999888241291046e-03
5.393457719000000594e+00,4.600000008940696716e-02,-3.000000026077032089e-03,-9.645000457763671875e+00,1.000000047497451305e-03,-2.000000094994902611e-03,4.999999888241291046e-03
5.403480849000000141e+00,3.599999845027923584e-02,4.100000113248825073e-02,-9.607000350952148438e+00,-1.000000047497451305e-03,-1.000000047497451305e-03,6.000000052154064178e-03
5.413437034000000203e+00,3.599999845027923584e-02,4.100000113248825073e-02,-9.607000350952148438e+00,-1.000000047497451305e-03,-1.000000047497451305e-03,6.000000052154064178e-03
5.423556626999999963e+00,3.599999845027923584e-02,4.100000113248825073e-02,-9.607000350952148438e+00,-1.000000047497451305e-03,-1.000000047497451305e-03,6.000000052154064178e-03
5.433468219000000765e+00,3.599999845027923584e-02,4.100000113248825073e-02,-9.607000350952148438e+00,-1.000000047497451305e-03,-1.000000047497451305e-03,6.000000052154064178e-03
5.443366423000000509e+00,1.200000010430812836e-02,-4.600000008940696716e-02,-9.663999557495117188e+00,1.000000047497451305e-03,-2.000000094994902611e-03,6.000000052154064178e-03
5.453430181999999959e+00,1.200000010430812836e-02,-4.600000008940696716e-02,-9.663999557495117188e+00,1.000000047497451305e-03,-2.000000094994902611e-03,6.000000052154064178e-03
5.463406997000000764e+00,5.999999865889549255e-02,-1.700000092387199402e-02,-9.722000122070312500e+00,-2.000000094994902611e-03,-2.000000094994902611e-03,7.000000216066837311e-03
5.473572793000000658e+00,5.999999865889549255e-02,-1.700000092387199402e-02,-9.722000122070312500e+00,-2.000000094994902611e-03,-2.000000094994902611e-03,7.000000216066837311e-03
5.483415922999999914e+00,5.999999865889549255e-02,-1.700000092387199402e-02,-9.722000122070312500e+00,-2.000000094994902611e-03,-2.000000094994902611e-03,7.000000216066837311e-03
5.493454868000000602e+00,5.999999865889549255e-02,-1.700000092387199402e-02,-9.722000122070312500e+00,-2.000000094994902611e-03,-2.000000094994902611e-03,7.000000216066837311e-03
5.503443719000000733e+00,-2.099999971687793732e-02,-2.600000053644180298e-02,-9.583000183105468750e+00,-1.000000047497451305e-03,-3.000000026077032089e-03,7.000000216066837311e-03
5.513499108000000426e+00,-2.099999971687793732e-02,-2.600000053644180298e-02,-9.583000183105468750e+00,-1.000000047497451305e-03,-3.000000026077032089e-03,7.000000216066837311e-03
5.523478460000000645e+00,-1.200000010430812836e-02,-4.600000008940696716e-02,-9.668999671936035156e+00,-2.000000094994902611e-03,-2.000000094994902611e-03,7.000000216066837311e-03
5.533408238000000701e+00,-1.200000010430812836e-02,-4.600000008940696716e-02,-9.668999671936035156e+00,-2.000000094994902611e-03,-2.000000094994902611e-03,7.000000216066837311e-03
5.543418867000000638e+00,3.099999949336051941e-02,-1.700000092387199402e-02,-9.692999839782714844e+00,1.000000047497451305e-03,-3.000000026077032089e-03,6.000000052154064178e-03
5.553650404999999957e+00,3.099999949336051941e-02,-1.700000092387199402e-02,-9.692999839782714844e+00,1.000000047497451305e-03,-3.000000026077032089e-03,6.000000052154064178e-03
5.563495497000000789e+00,3.099999949336051941e-02,-1.700000092387199402e-02,-9.692999839782714844e+00,1.000000047497451305e-03,-3.000000026077032089e-03,6.000000052154064178e-03
5.573585626999999931e+00,3.099999949336051941e-02,-1.700000092387199402e-02,-9.692999839782714844e+00,1.000000047497451305e-03,-3.000000026077032089e-03,6.000000052154064178e-03
5.583436367000000011e+00,-4.500000178813934326e-02,1.700000092387199402e-02,-9.592000007629394531e+00,-1.000000047497451305e-03,-3.000000026077032089e-03,6.000000052154064178e-03
5.593465349000000586e+00,-4.500000178813934326e-02,1.700000092387199402e-02,-9.592000007629394531e+00,-1.000000047497451305e-03,-3.000000026077032089e-03,6.000000052154064178e-03
5.603490034000000009e+00,2.199999988079071045e-02,-5.000000074505805969e-02,-9.649999618530273438e+00,-1.000000047497451305e-03,-3.000000026077032089e-03,7.000000216066837311e-03
5.613486479000000529e+00,2.199999988079071045e-02,-5.000000074505805969e-02,-9.649999618530273438e+00,-1.000000047497451305e-03,-3.000000026077032089e-03,7.000000216066837311e-03
5.623567034000000575e+00,8.399999886751174927e-02,7.000000216066837311e-03,-9.741000175476074219e+00,-1.000000047497451305e-03,-3.000000026077032089e-03,6.000000052154064178e-03
5.633549108000000416e+00,8.399999886751174927e-02,7.000000216066837311e-03,-9.741000175476074219e+00,-1.000000047497451305e-03,-3.000000026077032089e-03,6.000000052154064178e-03
5.643467293000000495e+00,-1.200000010430812836e-02,-2.600000053644180298e-02,-9.597000122070312500e+00,-2.000000094994902611e-03,-3.000000026077032089e-03,7.000000216066837311e-03
5.653466219000000237e+00,-1.200000010430812836e-02,-2.600000053644180298e-02,-9.597000122070312500e+00,-2.000000094994902611e-03,-3.000000026077032089e-03,7.000000216066837311e-03
5.663439793000000222e+00,1.700000092387199402e-02,-4.600000008940696716e-02,-9.663999557495117188e+00,-2.000000094994902611e-03,-2.000000094994902611e-03,7.000000216066837311e-03
5.673423496999999927e+00,1.700000092387199402e-02,-4.600000008940696716e-02,-9.663999557495117188e+00,-2.000000094994902611e-03,-2.000000094994902611e-03,7.000000216066837311e-03
5.683477367000000058e+00,7.000000216066837311e-03,-3.599999845027923584e-02,-9.717000007629394531e+00,-2.000000094994902611e-03,-4.000000189989805222e-03,6.000000052154064178e-03
5.693649701000000007e+00,7.000000216066837311e-03,-3.599999845027923584e-02,-9.717000007629394531e+00,-2.000000094994902611e-03,-4.000000189989805222e-03,6.000000052154064178e-03
5.703639886000000381e+00,-3.599999845027923584e-02,1.700000092387199402e-02,-9.673999786376953125e+00,1.000000047497451305e-03,-3.000000026077032089e-03,7.000000216066837311e-03
5.713768219000000315e+00,-3.599999845027923584e-02,1.700000092387199402e-02,-9.673999786376953125e+00,1.000000047497451305e-03,-3.000000026077032089e-03,7.000000216066837311e-03
5.723575775000000476e+00,-2.000000094994902611e-03,-2.199999988079071045e-02,-9.529999732971191406e+00,-1.000000047497451305e-03,-3.000000026077032089e-03,7.000000216066837311e-03
5.733435534000000722e+00,-2.000000094994902611e-03,-2.199999988079071045e-02,-9.529999732971191406e+00,-1.000000047497451305e-03,-3.000000026077032089e-03,7.000000216066837311e-03
5.743426904000000555e+00,-1.600000075995922089e-02,-5.000000074505805969e-02,-9.607000350952148438e+00,-1.000000047497451305e-03,-2.000000094994902611e-03,7.000000216066837311e-03
5.753675534000000091e+00,-1.600000075995922089e-02,-5.000000074505805969e-02,-9.607000350952148438e+00,-1.000000047497451305e-03,-2.000000094994902611e-03,7.000000216066837311e-03
5.763449386000000452e+00,2.199999988079071045e-02,2.600000053644180298e-02,-9.645000457763671875e+00,-1.000000047497451305e-03,-3.000000026077032089e-03,8.000000379979610443e-03
5.773404497000000468e+00,2.199999988079071045e-02,2.600000053644180298e-02,-9.645000457763671875e+00,-1.000000047497451305e-03,-3.000000026077032089e-03,8.000000379979610443e-03
5.783418256000000035e+00,2.199999988079071045e-02,2.600000053644180298e-02,-9.645000457763671875e+00,-1.000000047497451305e-03,-3.000000026077032089e-03,8.000000379979610443e-03
5.793441645000000584e+00,2.199999988079071045e-02,2.600000053644180298e-02,-9.645000457763671875e+00,-1.000000047497451305e-03,-3.000000026077032089e-03,8.000000379979610443e-03
5.803465367000000263e+00,-2.600000053644180298e-02,-7.900000363588333130e-02,-9.607000350952148438e+00,1.000000047497451305e-03,-2.000000094994902611e-03,6.000000052154064178e-03
5.813514441000000588e+00,-2.600000053644180298e-02,-7.900000363588333130e-02,-9.607000350952148438e+00,1.000000047497451305e-03,-2.000000094994902611e-03,6.000000052154064178e-03
5.823549107999999919e+00,3.000000026077032089e-03,-7.000000216066837311e-03,-9.711999893188476562e+00,-2.000000094994902611e-03,-4.000000189989805222e-03,7.000000216066837311e-03
5.833472090000000776e+00,3.000000026077032089e-03,-7.000000216066837311e-03,-9.711999893188476562e+00,-2.000000094994902611e-03,-4.000000189989805222e-03,7.000000216066837311e-03
5.843430256000000433e+00,3.000000026077032089e-03,-7.000000216066837311e-03,-9.711999893188476562e+00,-2.000000094994902611e-03,-4.000000189989805222e-03,7.000000216066837311e-03
5.853427756000000315e+00,3.000000026077032089e-03,-7.000000216066837311e-03,-9.711999893188476562e+00,-2.000000094994902611e-03,-4.000000189989805222e-03,7.000000216066837311e-03
5.863436330000000751e+00,-1.600000075995922089e-02,-1.700000092387199402e-02,-9.583000183105468750e+00,-2.000000094994902611e-03,-3.000000026077032089e-03,7.000000216066837311e-03
5.873422386000000550e+00,-1.600000075995922089e-02,-1.700000092387199402e-02,-9.583000183105468750e+00,-2.000000094994902611e-03,-3.000000026077032089e-03,7.000000216066837311e-03
5.883493460000000397e+00,-1.600000075995922089e-02,-7.000000216066837311e-03,-9.621000289916992188e+00,-1.000000047497451305e-03,-3.000000026077032089e-03,7.000000216066837311e-03
5.893689923000000164e+00,-1.600000075995922089e-02,-7.000000216066837311e-03,-9.621000289916992188e+00,-1.000000047497451305e-03,-3.000000026077032089e-03,7.000000216066837311e-03
5.903444367000000526e+00,-7.000000216066837311e-03,-5.999999865889549255e-02,-9.678999900817871094e+00,-2.000000094994902611e-03,-3.000000026077032089e-03,7.000000216066837311e-03
5.913444608000000713e+00,-7.000000216066837311e-03,-5.999999865889549255e-02,-9.678999900817871094e+00,-2.000000094994902611e-03,-3.000000026077032089e-03,7.000000216066837311e-03
5.923503571000000356e+00,-7.000000216066837311e-03,-5.999999865889549255e-02,-9.678999900817871094e+00,-2.000000094994902611e-03,-3.000000026077032089e-03,7.000000216066837311e-03
5.933664775000000446e+00,-7.000000216066837311e-03,-5.999999865889549255e-02,-9.678999900817871094e+00,-2.000000094994902611e-03,-3.000000026077032089e-03,7.000000216066837311e-03
5.943573738000000439e+00,-3.999999910593032837e-02,-1.200000010430812836e-02,-9.588000297546386719e+00,-2.000000094994902611e-03,-2.000000094994902611e-03,4.999999888241291046e-03
5.953445812000000004e+00,-3.999999910593032837e-02,-1.200000010430812836e-02,-9.588000297546386719e+00,-2.000000094994902611e-03,-2.000000094994902611e-03,4.999999888241291046e-03
5.963589774999999982e+00,2.199999988079071045e-02,-4.100000113248825073e-02,-9.706999778747558594e+00,1.000000047497451305e-03,-1.000000047497451305e-03,7.000000216066837311e-03
5.973490385999999930e+00,2.199999988079071045e-02,-4.100000113248825073e-02,-9.706999778747558594e+00,1.000000047497451305e-03,-1.000000047497451305e-03,7.000000216066837311e-03
5.983477738000000379e+00,7.000000216066837311e-03,-5.000000074505805969e-02,-9.727000236511230469e+00,-1.000000047497451305e-03,-2.000000094994902611e-03,7.000000216066837311e-03
5.993686607999999971e+00,7.000000216066837311e-03,-5.000000074505805969e-02,-9.727000236511230469e+00,-1.000000047497451305e-03,-2.000000094994902611e-03,7.000000216066837311e-03
6.003635330000000714e+00,1.200000010430812836e-02,-5.000000074505805969e-02,-9.626000404357910156e+00,-1.000000047497451305e-03,-3.000000026077032089e-03,6.000000052154064178e-03
6.013618923000000116e+00,1.200000010430812836e-02,-5.000000074505805969e-02,-9.626000404357910156e+00,-1.000000047497451305e-03,-3.000000026077032089e-03,6.000000052154064178e-03
6.023652367000000396e+00,1.200000010430812836e-02,-5.000000074505805969e-02,-9.564000129699707031e+00,-1.000000047497451305e-03,-2.000000094994902611e-03,6.000000052154064178e-03
6.034830867000000154e+00,1.200000010430812836e-02,-5.000000074505805969e-02,-9.564000129699707031e+00,-1.000000047497451305e-03,-2.000000094994902611e-03,6.000000052154064178e-03
6.043519108000000806e+00,-1.200000010430812836e-02,-4.100000113248825073e-02,-9.635999679565429688e+00,1.000000047497451305e-03,-3.000000026077032089e-03,6.000000052154064178e-03
6.053681386000000053e+00,-1.200000010430812836e-02,-4.100000113248825073e-02,-9.635999679565429688e+00,1.000000047497451305e-03,-3.000000026077032089e-03,6.000000052154064178e-03
6.063766256000000077e+00,4.600000008940696716e-02,-2.600000053644180298e-02,-9.668999671936035156e+00,-2.000000094994902611e-03,-3.000000026077032089e-03,6.000000052154064178e-03
6.073681663000000341e+00,4.600000008940696716e-02,-2.600000053644180298e-02,-9.668999671936035156e+00,-2.000000094994902611e-03,-3.000000026077032089e-03,6.000000052154064178e-03
6.083486423000000087e+00,-3.099999949336051941e-02,-2.199999988079071045e-02,-9.630999565124511719e+00,1.000000047497451305e-03,-3.000000026077032089e-03,7.000000216066837311e-03
6.093701589000000141e+00,-3.099999949336051941e-02,-2.199999988079071045e-02,-9.630999565124511719e+00,1.000000047497451305e-03,-3.000000026077032089e-03,7.000000216066837311e-03
6.103441386000000080e+00,-7.000000216066837311e-03,-5.499999970197677612e-02,-9.668999671936035156e+00,1.000000047497451305e-03,-2.000000094994902611e-03,7.000000216066837311e-03
6.113451941000000112e+00,-7.000000216066837311e-03,-5.499999970197677612e-02,-9.668999671936035156e+00,1.000000047497451305e-03,-2.000000094994902611e-03,7.000000216066837311e-03
6.123438866999999952e+00,2.700000070035457611e-02,-7.000000029802322388e-02,-9.654999732971191406e+00,-1.000000047497451305e-03,-2.000000094994902611e-03,7.000000216066837311e-03
6.133443960000000139e+00,2.700000070035457611e-02,-7.000000029802322388e-02,-9.654999732971191406e+00,-1.000000047497451305e-03,-2.000000094994902611e-03,7.000000216066837311e-03
6.143464960000000197e+00,2.700000070035457611e-02,-7.000000029802322388e-02,-9.654999732971191406e+00,-1.000000047497451305e-03,-2.000000094994902611e-03,7.000000216066837311e-03
6.153773386000000123e+00,2.700000070035457611e-02,-7.000000029802322388e-02,-9.654999732971191406e+00,-1.000000047497451305e-03,-2.000000094994902611e-03,7.000000216066837311e-03
6.163446441000000497e+00,-1.200000010430812836e-02,-4.600000008940696716e-02,-9.539999961853027344e+00,-1.000000047497451305e-03,-1.000000047497451305e-03,6.000000052154064178e-03
6.173741145000000152e+00,-1.200000010430812836e-02,-4.600000008940696716e-02,-9.539999961853027344e+00,-1.000000047497451305e-03,-1.000000047497451305e-03,6.000000052154064178e-03
6.183445775000000033e+00,3.000000026077032089e-03,1.200000010430812836e-02,-9.654999732971191406e+00,1.000000047497451305e-03,-3.000000026077032089e-03,6.000000052154064178e-03
6.193834441000000801e+00,3.000000026077032089e-03,1.200000010430812836e-02,-9.654999732971191406e+00,1.000000047497451305e-03,-3.000000026077032089e-03,6.000000052154064178e-03
6.203724349000000693e+00,3.000000026077032089e-03,1.200000010430812836e-02,-9.654999732971191406e+00,1.000000047497451305e-03,-3.000000026077032089e-03,6.000000052154064178e-03
6.213659978000000805e+00,3.000000026077032089e-03,1.200000010430812836e-02,-9.654999732971191406e+00,1.000000047497451305e-03,-3.000000026077032089e-03,6.000000052154064178e-03
6.223487349000000002e+00,7.000000216066837311e-03,-7.000000216066837311e-03,-9.659000396728515625e+00,1.000000047497451305e-03,-2.000000094994902611e-03,6.000000052154064178e-03
6.233635886000000070e+00,7.000000216066837311e-03,-7.000000216066837311e-03,-9.659000396728515625e+00,1.000000047497451305e-03,-2.000000094994902611e-03,6.000000052154064178e-03
6.243515608000000050e+00,-2.600000053644180298e-02,-1.200000010430812836e-02,-9.583000183105468750e+00,-1.000000047497451305e-03,-3.000000026077032089e-03,6.000000052154064178e-03
6.253497460000000174e+00,-2.600000053644180298e-02,-1.200000010430812836e-02,-9.583000183105468750e+00,-1.000000047497451305e-03,-3.000000026077032089e-03,6.000000052154064178e-03
6.263659423000000004e+00,2.700000070035457611e-02,-3.599999845027923584e-02,-9.668999671936035156e+00,-1.000000047497451305e-03,-2.000000094994902611e-03,7.000000216066837311e-03
6.273660071000000116e+00,2.700000070035457611e-02,-3.599999845027923584e-02,-9.668999671936035156e+00,-1.000000047497451305e-03,-2.000000094994902611e-03,7.000000216066837311e-03
6.284020330000000598e+00,2.700000070035457611e-02,-3.599999845027923584e-02,-9.668999671936035156e+00,-1.000000047497451305e-03,-2.000000094994902611e-03,7.000000216066837311e-03
6.293701034000000583e+00,2.700000070035457611e-02,-3.599999845027923584e-02,-9.668999671936035156e+00,-1.000000047497451305e-03,-2.000000094994902611e-03,7.000000216066837311e-03
6.303576700000000699e+00,-1.200000010430812836e-02,-2.199999988079071045e-02,-9.635999679565429688e+00,-1.000000047497451305e-03,-3.000000026077032089e-03,6.000000052154064178e-03
6.313631756000000372e+00,-1.200000010430812836e-02,-2.199999988079071045e-02,-9.635999679565429688e+00,-1.000000047497451305e-03,-3.000000026077032089e-03,6.000000052154064178e-03
6.323477959999999953e+00,-3.999999910593032837e-02,-1.200000010430812836e-02,-9.654999732971191406e+00,1.000000047497451305e-03,-1.000000047497451305e-03,6.000000052154064178e-03
6.333478941000000084e+00,-3.999999910593032837e-02,-1.200000010430812836e-02,-9.654999732971191406e+00,1.000000047497451305e-03,-1.000000047497451305e-03,6.000000052154064178e-03
6.343423941000000177e+00,-1.600000075995922089e-02,7.000000216066837311e-03,-9.746000289916992188e+00,-2.000000094994902611e-03,-1.000000047497451305e-03,7.000000216066837311e-03
6.353677163000000405e+00,-1.600000075995922089e-02,7.000000216066837311e-03,-9.746000289916992188e+00,-2.000000094994902611e-03,-1.000000047497451305e-03,7.000000216066837311e-03
6.363656534000000420e+00,2.199999988079071045e-02,2.000000094994902611e-03,-9.692999839782714844e+00,-1.000000047497451305e-03,-3.000000026077032089e-03,6.000000052154064178e-03
6.373771386000000483e+00,2.199999988079071045e-02,2.000000094994902611e-03,-9.692999839782714844e+00,-1.000000047497451305e-03,-3.000000026077032089e-03,6.000000052154064178e-03
6.383525497000000826e+00,-1.200000010430812836e-02,-1.700000092387199402e-02,-9.626000404357910156e+00,-1.000000047497451305e-03,-3.000000026077032089e-03,7.000000216066837311e-03
6.393766348000000654e+00,-1.200000010430812836e-02,-1.700000092387199402e-02,-9.626000404357910156e+00,-1.000000047497451305e-03,-3.000000026077032089e-03,7.000000216066837311e-03
6.403830219000000490e+00,-2.000000094994902611e-03,-5.000000074505805969e-02,-9.659000396728515625e+00,1.000000047497451305e-03,-2.000000094994902611e-03,7.000000216066837311e-03
6.413576756000000323e+00,-2.000000094994902611e-03,-5.000000074505805969e-02,-9.659000396728515625e+00,1.000000047497451305e-03,-2.000000094994902611e-03,7.000000216066837311e-03
6.423549608000000077e+00,1.200000010430812836e-02,-2.199999988079071045e-02,-9.678999900817871094e+00,1.000000047497451305e-03,-2.000000094994902611e-03,6.000000052154064178e-03
6.434632089000000832e+00,1.200000010430812836e-02,-2.199999988079071045e-02,-9.678999900817871094e+00,1.000000047497451305e-03,-2.000000094994902611e-03,6.000000052154064178e-03
6.443471034000000763e+00,5.099999904632568359e-02,3.099999949336051941e-02,-9.649999618530273438e+00,1.000000047497451305e-03,-2.000000094994902611e-03,6.000000052154064178e-03
6.453479089000000002e+00,5.099999904632568359e-02,3.099999949336051941e-02,-9.649999618530273438e+00,1.000000047497451305e-03,-2.000000094994902611e-03,6.000000052154064178e-03
6.463490774000000272e+00,1.200000010430812836e-02,7.000000216066837311e-03,-9.539999961853027344e+00,-1.000000047497451305e-03,-2.000000094994902611e-03,6.000000052154064178e-03
6.473903460000000720e+00,1.200000010430812836e-02,7.000000216066837311e-03,-9.539999961853027344e+00,-1.000000047497451305e-03,-2.000000094994902611e-03,6.000000052154064178e-03
6.483752737000000543e+00,3.000000026077032089e-03,-2.600000053644180298e-02,-9.645000457763671875e+00,-1.000000047497451305e-03,-1.000000047497451305e-03,6.000000052154064178e-03
6.493697552000000428e+00,3.000000026077032089e-03,-2.600000053644180298e-02,-9.645000457763671875e+00,-1.000000047497451305e-03,-1.000000047497451305e-03,6.000000052154064178e-03
6.503517978000000532e+00,3.000000026077032089e-03,-2.600000053644180298e-02,-9.645000457763671875e+00,-1.000000047497451305e-03,-1.000000047497451305e-03,6.000000052154064178e-03
6.513669422000000431e+00,3.000000026077032089e-03,-2.600000053644180298e-02,-9.645000457763671875e+00,-1.000000047497451305e-03,-1.000000047497451305e-03,6.000000052154064178e-03
6.523670274000000546e+00,1.200000010430812836e-02,-3.000000026077032089e-03,-9.588000297546386719e+00,-1.000000047497451305e-03,-2.000000094994902611e-03,6.000000052154064178e-03
6.533446367000000699e+00,1.200000010430812836e-02,-3.000000026077032089e-03,-9.588000297546386719e+00,-1.000000047497451305e-03,-2.000000094994902611e-03,6.000000052154064178e-03
6.543471163000000423e+00,-2.600000053644180298e-02,-3.099999949336051941e-02,-9.626000404357910156e+00,-1.000000047497451305e-03,-2.000000094994902611e-03,7.000000216066837311e-03
6.553490737000000621e+00,-2.600000053644180298e-02,-3.099999949336051941e-02,-9.626000404357910156e+00,-1.000000047497451305e-03,-2.000000094994902611e-03,7.000000216066837311e-03
6.563456959000000701e+00,-2.600000053644180298e-02,-3.099999949336051941e-02,-9.626000404357910156e+00,-1.000000047497451305e-03,-2.000000094994902611e-03,7.000000216066837311e-03
6.573459330000000378e+00,-2.600000053644180298e-02,-3.099999949336051941e-02,-9.626000404357910156e+00,-1.000000047497451305e-03,-2.000000094994902611e-03,7.000000216066837311e-03
6.583873867000000324e+00,4.100000113248825073e-02,-4.100000113248825073e-02,-9.736000061035156250e+00,-1.000000047497451305e-03,-2.000000094994902611e-03,7.000000216066837311e-03
6.593512404000000160e+00,4.100000113248825073e-02,-4.100000113248825073e-02,-9.736000061035156250e+00,-1.000000047497451305e-03,-2.000000094994902611e-03,7.000000216066837311e-03
6.603490330000000519e+00,-3.999999910593032837e-02,-4.600000008940696716e-02,-9.564000129699707031e+00,1.000000047497451305e-03,-3.000000026077032089e-03,6.000000052154064178e-03
6.613566996000000309e+00,-3.999999910593032837e-02,-4.600000008940696716e-02,-9.564000129699707031e+00,1.000000047497451305e-03,-3.000000026077032089e-03,6.000000052154064178e-03
6.623494830000000277e+00,-2.000000094994902611e-03,-3.599999845027923584e-02,-9.592000007629394531e+00,1.000000047497451305e-03,-3.000000026077032089e-03,6.000000052154064178e-03
6.633478608000000776e+00,-2.000000094994902611e-03,-3.599999845027923584e-02,-9.592000007629394531e+00,1.000000047497451305e-03,-3.000000026077032089e-03,6.000000052154064178e-03
6.644270515000000543e+00,-2.000000094994902611e-03,-3.599999845027923584e-02,-9.592000007629394531e+00,1.000000047497451305e-03,-3.000000026077032089e-03,6.000000052154064178e-03
6.653749626000000639e+00,-2.000000094994902611e-03,-3.599999845027923584e-02,-9.592000007629394531e+00,1.000000047497451305e-03,-3.000000026077032089e-03,6.000000052154064178e-03
6.663451015000000588e+00,4.600000008940696716e-02,-3.099999949336051941e-02,-9.692999839782714844e+00,-1.000000047497451305e-03,-3.000000026077032089e-03,6.000000052154064178e-03
6.673490126000000799e+00,4.600000008940696716e-02,-3.099999949336051941e-02,-9.692999839782714844e+00,-1.000000047497451305e-03,-3.000000026077032089e-03,6.000000052154064178e-03
6.683484274000000447e+00,7.000000216066837311e-03,2.000000094994902611e-03,-9.626000404357910156e+00,-1.000000047497451305e-03,-3.000000026077032089e-03,6.000000052154064178e-03
6.693496793000000444e+00,7.000000216066837311e-03,2.000000094994902611e-03,-9.626000404357910156e+00,-1.000000047497451305e-03,-3.000000026077032089e-03,6.000000052154064178e-03
6.703942608000000192e+00,-4.500000178813934326e-02,-1.200000010430812836e-02,-9.697999954223632812e+00,1.000000047497451305e-03,-3.000000026077032089e-03,6.000000052154064178e-03
6.713755663000000595e+00,-4.500000178813934326e-02,-1.200000010430812836e-02,-9.697999954223632812e+00,1.000000047497451305e-03,-3.000000026077032089e-03,6.000000052154064178e-03
6.723436144999999975e+00,2.700000070035457611e-02,2.000000094994902611e-03,-9.703000068664550781e+00,-1.000000047497451305e-03,-2.000000094994902611e-03,7.000000216066837311e-03
6.733748589000000173e+00,2.700000070035457611e-02,2.000000094994902611e-03,-9.703000068664550781e+00,-1.000000047497451305e-03,-2.000000094994902611e-03,7.000000216066837311e-03
6.743642070000000821e+00,-7.000000216066837311e-03,-3.099999949336051941e-02,-9.668999671936035156e+00,-2.000000094994902611e-03,-3.000000026077032089e-03,7.000000216066837311e-03
6.753781385000000803e+00,-7.000000216066837311e-03,-3.099999949336051941e-02,-9.668999671936035156e+00,-2.000000094994902611e-03,-3.000000026077032089e-03,7.000000216066837311e-03
6.763781385000000590e+00,-7.000000216066837311e-03,-4.100000113248825073e-02,-9.578000068664550781e+00,-1.000000047497451305e-03,-1.000000047497451305e-03,7.000000216066837311e-03
6.773727330000000713e+00,-7.000000216066837311e-03,-4.100000113248825073e-02,-9.578000068664550781e+00,-1.000000047497451305e-03,-1.000000047497451305e-03,7.000000216066837311e-03
6.784175607000000774e+00,-2.600000053644180298e-02,-4.600000008940696716e-02,-9.659000396728515625e+00,1.000000047497451305e-03,-3.000000026077032089e-03,7.000000216066837311e-03
6.793480311000000604e+00,-2.600000053644180298e-02,-4.600000008940696716e-02,-9.659000396728515625e+00,1.000000047497451305e-03,-3.000000026077032089e-03,7.000000216066837311e-03
6.803459311000000120e+00,3.000000026077032089e-03,-5.000000074505805969e-02,-9.750000000000000000e+00,-1.000000047497451305e-03,-3.000000026077032089e-03,6.000000052154064178e-03
6.813450941000000149e+00,3.000000026077032089e-03,-5.000000074505805969e-02,-9.750000000000000000e+00,-1.000000047497451305e-03,-3.000000026077032089e-03,6.000000052154064178e-03
6.823461404000000563e+00,-1.200000010430812836e-02,-2.199999988079071045e-02,-9.640000343322753906e+00,-1.000000047497451305e-03,-2.000000094994902611e-03,7.000000216066837311e-03
6.833487256000000620e+00,-1.200000010430812836e-02,-2.199999988079071045e-02,-9.640000343322753906e+00,-1.000000047497451305e-03,-2.000000094994902611e-03,7.000000216066837311e-03
6.843583978000000734e+00,-2.000000094994902611e-03,-3.599999845027923584e-02,-9.621000289916992188e+00,-1.000000047497451305e-03,-1.000000047497451305e-03,6.000000052154064178e-03
6.853461422000000525e+00,-2.000000094994902611e-03,-3.599999845027923584e-02,-9.621000289916992188e+00,-1.000000047497451305e-03,-1.000000047497451305e-03,6.000000052154064178e-03
6.863534293000000730e+00,-2.000000094994902611e-03,-3.599999845027923584e-02,-9.621000289916992188e+00,-1.000000047497451305e-03,-1.000000047497451305e-03,6.000000052154064178e-03
6.873474274000000328e+00,-2.000000094994902611e-03,-3.599999845027923584e-02,-9.621000289916992188e+00,-1.000000047497451305e-03,-1.000000047497451305e-03,6.000000052154064178e-03
6.883501700000000056e+00,1.700000092387199402e-02,-3.000000026077032089e-03,-9.750000000000000000e+00,-1.000000047497451305e-03,-2.000000094994902611e-03,8.000000379979610443e-03
6.893464922000000605e+00,1.700000092387199402e-02,-3.000000026077032089e-03,-9.750000000000000000e+00,-1.000000047497451305e-03,-2.000000094994902611e-03,8.000000379979610443e-03
6.903855089000000333e+00,-3.999999910593032837e-02,-3.599999845027923584e-02,-9.592000007629394531e+00,-1.000000047497451305e-03,-2.000000094994902611e-03,7.000000216066837311e-03
6.913505700000000864e+00,-3.999999910593032837e-02,-3.599999845027923584e-02,-9.592000007629394531e+00,-1.000000047497451305e-03,-2.000000094994902611e-03,7.000000216066837311e-03
6.923693885000000492e+00,-3.999999910593032837e-02,-3.599999845027923584e-02,-9.592000007629394531e+00,-1.000000047497451305e-03,-2.000000094994902611e-03,7.000000216066837311e-03
6.934071552000000693e+00,-3.999999910593032837e-02,-3.599999845027923584e-02,-9.592000007629394531e+00,-1.000000047497451305e-03,-2.000000094994902611e-03,7.000000216066837311e-03
6.943438978000000539e+00,4.600000008940696716e-02,1.700000092387199402e-02,-9.770000457763671875e+00,-2.000000094994902611e-03,-3.000000026077032089e-03,6.000000052154064178e-03
6.953570274000000495e+00,4.600000008940696716e-02,1.700000092387199402e-02,-9.770000457763671875e+00,-2.000000094994902611e-03,-3.000000026077032089e-03,6.000000052154064178e-03
6.963463718000000746e+00,2.700000070035457611e-02,-7.000000216066837311e-03,-9.673999786376953125e+00,1.000000047497451305e-03,-3.000000026077032089e-03,7.000000216066837311e-03
6.973502589000000640e+00,2.700000070035457611e-02,-7.000000216066837311e-03,-9.673999786376953125e+00,1.000000047497451305e-03,-3.000000026077032089e-03,7.000000216066837311e-03
6.983466274000000418e+00,-3.999999910593032837e-02,-1.700000092387199402e-02,-9.548999786376953125e+00,1.000000047497451305e-03,-3.000000026077032089e-03,6.000000052154064178e-03
6.993464422000000624e+00,-3.999999910593032837e-02,-1.700000092387199402e-02,-9.548999786376953125e+00,1.000000047497451305e-03,-3.000000026077032089e-03,6.000000052154064178e-03
7.003398330000000449e+00,-3.999999910593032837e-02,-1.700000092387199402e-02,-9.548999786376953125e+00,1.000000047497451305e-03,-3.000000026077032089e-03,6.000000052154064178e-03
7.013450904000000818e+00,-3.999999910593032837e-02,-1.700000092387199402e-02,-9.548999786376953125e+00,1.000000047497451305e-03,-3.000000026077032089e-03,6.000000052154064178e-03
7.023496515000000606e+00,3.000000026077032089e-03,-1.700000092387199402e-02,-9.736000061035156250e+00,-2.000000094994902611e-03,-2.000000094994902611e-03,7.000000216066837311e-03
7.033454589000000645e+00,3.000000026077032089e-03,-1.700000092387199402e-02,-9.736000061035156250e+00,-2.000000094994902611e-03,-2.000000094994902611e-03,7.000000216066837311e-03
7.043468163000000004e+00,-7.000000216066837311e-03,2.000000094994902611e-03,-9.583000183105468750e+00,1.000000047497451305e-03,-2.000000094994902611e-03,7.000000216066837311e-03
7.053775755000000203e+00,-7.000000216066837311e-03,2.000000094994902611e-03,-9.583000183105468750e+00,1.000000047497451305e-03,-2.000000094994902611e-03,7.000000216066837311e-03
7.063422126000000745e+00,7.000000216066837311e-03,-2.199999988079071045e-02,-9.616000175476074219e+00,1.000000047497451305e-03,-3.000000026077032089e-03,7.000000216066837311e-03
7.073447422000000095e+00,7.000000216066837311e-03,-2.199999988079071045e-02,-9.616000175476074219e+00,1.000000047497451305e-03,-3.000000026077032089e-03,7.000000216066837311e-03
7.083450774000000116e+00,-5.000000074505805969e-02,-3.599999845027923584e-02,-9.697999954223632812e+00,-1.000000047497451305e-03,-2.000000094994902611e-03,6.000000052154064178e-03
7.093652644000000507e+00,-5.000000074505805969e-02,-3.599999845027923584e-02,-9.697999954223632812e+00,-1.000000047497451305e-03,-2.000000094994902611e-03,6.000000052154064178e-03
7.103426867000000478e+00,3.099999949336051941e-02,-2.199999988079071045e-02,-9.663999557495117188e+00,-3.000000026077032089e-03,-3.000000026077032089e-03,6.000000052154064178e-03
7.113474385000000844e+00,3.099999949336051941e-02,-2.199999988079071045e-02,-9.663999557495117188e+00,-3.000000026077032089e-03,-3.000000026077032089e-03,6.000000052154064178e-03
7.123480237000000770e+00,-1.200000010430812836e-02,-3.000000026077032089e-03,-9.583000183105468750e+00,-1.000000047497451305e-03,-3.000000026077032089e-03,8.000000379979610443e-03
7.133459885000000611e+00,-1.200000010430812836e-02,-3.000000026077032089e-03,-9.583000183105468750e+00,-1.000000047497451305e-03,-3.000000026077032089e-03,8.000000379979610443e-03
7.143446589000000735e+00,-2.099999971687793732e-02,-6.499999761581420898e-02,-9.640000343322753906e+00,1.000000047497451305e-03,-4.000000189989805222e-03,6.000000052154064178e-03
7.153740311000000851e+00,-2.099999971687793732e-02,-6.499999761581420898e-02,-9.640000343322753906e+00,1.000000047497451305e-03,-4.000000189989805222e-03,6.000000052154064178e-03
7.163478996000000265e+00,-7.000000216066837311e-03,-4.100000113248825073e-02,-9.678999900817871094e+00,1.000000047497451305e-03,-3.000000026077032089e-03,7.000000216066837311e-03
7.173652052000000445e+00,-7.000000216066837311e-03,-4.100000113248825073e-02,-9.678999900817871094e+00,1.000000047497451305e-03,-3.000000026077032089e-03,7.000000216066837311e-03
7.183629681000000211e+00,1.700000092387199402e-02,-1.200000010430812836e-02,-9.630999565124511719e+00,-2.000000094994902611e-03,-3.000000026077032089e-03,6.000000052154064178e-03
7.193486441000000120e+00,1.700000092387199402e-02,-1.200000010430812836e-02,-9.630999565124511719e+00,-2.000000094994902611e-03,-3.000000026077032089e-03,6.000000052154064178e-03
7.203504348000000057e+00,-3.099999949336051941e-02,-3.099999949336051941e-02,-9.572999954223632812e+00,1.000000047497451305e-03,-4.000000189989805222e-03,7.000000216066837311e-03
7.213475200000000420e+00,-3.099999949336051941e-02,-3.099999949336051941e-02,-9.572999954223632812e+00,1.000000047497451305e-03,-4.000000189989805222e-03,7.000000216066837311e-03
7.223498015000000549e+00,-3.099999949336051941e-02,-3.099999949336051941e-02,-9.572999954223632812e+00,1.000000047497451305e-03,-4.000000189989805222e-03,7.000000216066837311e-03
7.233463792000000225e+00,-3.099999949336051941e-02,-3.099999949336051941e-02,-9.572999954223632812e+00,1.000000047497451305e-03,-4.000000189989805222e-03,7.000000216066837311e-03
7.243708589000000586e+00,7.000000216066837311e-03,-3.099999949336051941e-02,-9.711999893188476562e+00,-1.000000047497451305e-03,-2.000000094994902611e-03,6.000000052154064178e-03
7.253480403000000187e+00,7.000000216066837311e-03,-3.099999949336051941e-02,-9.711999893188476562e+00,-1.000000047497451305e-03,-2.000000094994902611e-03,6.000000052154064178e-03
7.263443737000000233e+00,5.499999970197677612e-02,-3.000000026077032089e-03,-9.583000183105468750e+00,-1.000000047497451305e-03,-3.000000026077032089e-03,6.000000052154064178e-03
7.273521848000000567e+00,5.499999970197677612e-02,-3.000000026077032089e-03,-9.583000183105468750e+00,-1.000000047497451305e-03,-3.000000026077032089e-03,6.000000052154064178e-03
7.283585496000000603e+00,5.499999970197677612e-02,-3.000000026077032089e-03,-9.583000183105468750e+00,-1.000000047497451305e-03,-3.000000026077032089e-03,6.000000052154064178e-03
7.294045255000000338e+00,5.499999970197677612e-02,-3.000000026077032089e-03,-9.583000183105468750e+00,-1.000000047497451305e-03,-3.000000026077032089e-03,6.000000052154064178e-03
7.303444552000000201e+00,-1.200000010430812836e-02,2.000000094994902611e-03,-9.659000396728515625e+00,-2.000000094994902611e-03,-2.000000094994902611e-03,6.000000052154064178e-03
7.313494940000000888e+00,-1.200000010430812836e-02,2.000000094994902611e-03,-9.659000396728515625e+00,-2.000000094994902611e-03,-2.000000094994902611e-03,6.000000052154064178e-03
7.323604163000000611e+00,-3.099999949336051941e-02,1.700000092387199402e-02,-9.692999839782714844e+00,-1.000000047497451305e-03,-2.000000094994902611e-03,7.000000216066837311e-03
7.333499644000000650e+00,-3.099999949336051941e-02,1.700000092387199402e-02,-9.692999839782714844e+00,-1.000000047497451305e-03,-2.000000094994902611e-03,7.000000216066837311e-03
7.343468607000000148e+00,-7.000000216066837311e-03,2.000000094994902611e-03,-9.588000297546386719e+00,-1.000000047497451305e-03,-3.000000026077032089e-03,7.000000216066837311e-03
7.353500089000000628e+00,-7.000000216066837311e-03,2.000000094994902611e-03,-9.588000297546386719e+00,-1.000000047497451305e-03,-3.000000026077032089e-03,7.000000216066837311e-03
7.364187681000000651e+00,-7.000000216066837311e-03,2.000000094994902611e-03,-9.588000297546386719e+00,-1.000000047497451305e-03,-3.000000026077032089e-03,7.000000216066837311e-03
7.373450607000000545e+00,-7.000000216066837311e-03,2.000000094994902611e-03,-9.588000297546386719e+00,-1.000000047497451305e-03,-3.000000026077032089e-03,7.000000216066837311e-03
7.383464774000000119e+00,5.099999904632568359e-02,-2.199999988079071045e-02,-9.706999778747558594e+00,-2.000000094994902611e-03,-2.000000094994902611e-03,7.000000216066837311e-03
7.393462218000000696e+00,5.099999904632568359e-02,-2.199999988079071045e-02,-9.706999778747558594e+00,-2.000000094994902611e-03,-2.000000094994902611e-03,7.000000216066837311e-03
7.403434848000000734e+00,2.199999988079071045e-02,-2.199999988079071045e-02,-9.626000404357910156e+00,1.000000047497451305e-03,-3.000000026077032089e-03,6.000000052154064178e-03
7.413448996000000513e+00,2.199999988079071045e-02,-2.199999988079071045e-02,-9.626000404357910156e+00,1.000000047497451305e-03,-3.000000026077032089e-03,6.000000052154064178e-03
7.423614292000000781e+00,-2.600000053644180298e-02,-3.099999949336051941e-02,-9.529999732971191406e+00,-1.000000047497451305e-03,-2.000000094994902611e-03,7.000000216066837311e-03
7.433601181000000224e+00,-2.600000053644180298e-02,-3.099999949336051941e-02,-9.529999732971191406e+00,-1.000000047497451305e-03,-2.000000094994902611e-03,7.000000216066837311e-03
7.443585681000000065e+00,3.000000026077032089e-03,-3.599999845027923584e-02,-9.649999618530273438e+00,-1.000000047497451305e-03,-2.000000094994902611e-03,6.000000052154064178e-03
7.453452200000000083e+00,3.000000026077032089e-03,-3.599999845027923584e-02,-9.649999618530273438e+00,-1.000000047497451305e-03,-2.000000094994902611e-03,6.000000052154064178e-03
7.463446626000000528e+00,-7.000000216066837311e-03,7.000000216066837311e-03,-9.741000175476074219e+00,-1.000000047497451305e-03,-2.000000094994902611e-03,6.000000052154064178e-03
7.473452237000000054e+00,-7.000000216066837311e-03,7.000000216066837311e-03,-9.741000175476074219e+00,-1.000000047497451305e-03,-2.000000094994902611e-03,6.000000052154064178e-03
7.483647422000000660e+00,-1.600000075995922089e-02,4.100000113248825073e-02,-9.578000068664550781e+00,-1.000000047497451305e-03,-2.000000094994902611e-03,6.000000052154064178e-03
7.493878107000000455e+00,-1.600000075995922089e-02,4.100000113248825073e-02,-9.578000068664550781e+00,-1.000000047497451305e-03,-2.000000094994902611e-03,6.000000052154064178e-03
7.503930070000000896e+00,-3.099999949336051941e-02,-2.199999988079071045e-02,-9.548999786376953125e+00,1.000000047497451305e-03,-3.000000026077032089e-03,7.000000216066837311e-03
7.514063737000000742e+00,-3.099999949336051941e-02,-2.199999988079071045e-02,-9.548999786376953125e+00,1.000000047497451305e-03,-3.000000026077032089e-03,7.000000216066837311e-03
7.525963903000000066e+00,1.700000092387199402e-02,-3.000000026077032089e-03,-9.668999671936035156e+00,-2.000000094994902611e-03,-3.000000026077032089e-03,7.000000216066837311e-03
7.535439663000000898e+00,1.700000092387199402e-02,-3.000000026077032089e-03,-9.668999671936035156e+00,-2.000000094994902611e-03,-3.000000026077032089e-03,7.000000216066837311e-03
7.543833570000000321e+00,3.599999845027923584e-02,-2.600000053644180298e-02,-9.703000068664550781e+00,-1.000000047497451305e-03,-2.000000094994902611e-03,6.000000052154064178e-03
7.553894014000000823e+00,3.599999845027923584e-02,-2.600000053644180298e-02,-9.703000068664550781e+00,-1.000000047497451305e-03,-2.000000094994902611e-03,6.000000052154064178e-03
7.563890774000000761e+00,-1.200000010430812836e-02,-4.600000008940696716e-02,-9.583000183105468750e+00,1.000000047497451305e-03,-3.000000026077032089e-03,7.000000216066837311e-03
7.576274107000000591e+00,-1.200000010430812836e-02,-4.600000008940696716e-02,-9.583000183105468750e+00,1.000000047497451305e-03,-3.000000026077032089e-03,7.000000216066837311e-03
7.586580977000000559e+00,-1.200000010430812836e-02,-4.600000008940696716e-02,-9.583000183105468750e+00,1.000000047497451305e-03,-3.000000026077032089e-03,7.000000216066837311e-03
7.594650588000000369e+00,-1.200000010430812836e-02,-4.600000008940696716e-02,-9.583000183105468750e+00,1.000000047497451305e-03,-3.000000026077032089e-03,7.000000216066837311e-03
7.605437311000000200e+00,2.199999988079071045e-02,-5.999999865889549255e-02,-9.746000289916992188e+00,1.000000047497451305e-03,-1.000000047497451305e-03,7.000000216066837311e-03
7.613868903000000188e+00,2.199999988079071045e-02,-5.999999865889549255e-02,-9.746000289916992188e+00,1.000000047497451305e-03,-1.000000047497451305e-03,7.000000216066837311e-03
7.624212514000000773e+00,1.200000010430812836e-02,-2.199999988079071045e-02,-9.722000122070312500e+00,-1.000000047497451305e-03,-2.000000094994902611e-03,7.000000216066837311e-03
7.633541385000000901e+00,1.200000010430812836e-02,-2.199999988079071045e-02,-9.722000122070312500e+00,-1.000000047497451305e-03,-2.000000094994902611e-03,7.000000216066837311e-03
7.644090811000000762e+00,1.700000092387199402e-02,-3.599999845027923584e-02,-9.578000068664550781e+00,-1.000000047497451305e-03,-3.000000026077032089e-03,8.000000379979610443e-03
7.653597792000000233e+00,1.700000092387199402e-02,-3.599999845027923584e-02,-9.578000068664550781e+00,-1.000000047497451305e-03,-3.000000026077032089e-03,8.000000379979610443e-03
7.664985292000000783e+00,-2.600000053644180298e-02,-3.599999845027923584e-02,-9.630999565124511719e+00,-1.000000047497451305e-03,-3.000000026077032089e-03,7.000000216066837311e-03
7.674960922000000352e+00,-2.600000053644180298e-02,-3.599999845027923584e-02,-9.630999565124511719e+00,-1.000000047497451305e-03,-3.000000026077032089e-03,7.000000216066837311e-03
7.686096792000000733e+00,5.999999865889549255e-02,-1.700000092387199402e-02,-9.717000007629394531e+00,-1.000000047497451305e-03,-3.000000026077032089e-03,7.000000216066837311e-03
7.696453903000000096e+00,5.999999865889549255e-02,-1.700000092387199402e-02,-9.717000007629394531e+00,-1.000000047497451305e-03,-3.000000026077032089e-03,7.000000216066837311e-03
7.703927218000000465e+00,3.000000026077032089e-03,-3.599999845027923584e-02,-9.616000175476074219e+00,-1.000000047497451305e-03,-2.000000094994902611e-03,7.000000216066837311e-03
7.714508829000000567e+00,3.000000026077032089e-03,-3.599999845027923584e-02,-9.616000175476074219e+00,-1.000000047497451305e-03,-2.000000094994902611e-03,7.000000216066837311e-03
7.727264570000000887e+00,3.000000026077032089e-03,-3.599999845027923584e-02,-9.616000175476074219e+00,-1.000000047497451305e-03,-2.000000094994902611e-03,7.000000216066837311e-03
7.734273625000000152e+00,3.000000026077032089e-03,-3.599999845027923584e-02,-9.616000175476074219e+00,-1.000000047497451305e-03,-2.000000094994902611e-03,7.000000216066837311e-03
7.745165199000000555e+00,3.000000026077032089e-03,-2.600000053644180298e-02,-9.635999679565429688e+00,-1.000000047497451305e-03,-1.000000047497451305e-03,6.000000052154064178e-03
7.755366718000000326e+00,3.000000026077032089e-03,-2.600000053644180298e-02,-9.635999679565429688e+00,-1.000000047497451305e-03,-1.000000047497451305e-03,6.000000052154064178e-03
7.767262681000000057e+00,3.000000026077032089e-03,-2.600000053644180298e-02,-9.635999679565429688e+00,-1.000000047497451305e-03,-1.000000047497451305e-03,6.000000052154064178e-03
7.774822255000000126e+00,-1.200000010430812836e-02,-2.199999988079071045e-02,-9.635999679565429688e+00,-2.000000094994902611e-03,-3.000000026077032089e-03,7.000000216066837311e-03
7.786050403000000841e+00,-1.200000010430812836e-02,-2.199999988079071045e-02,-9.635999679565429688e+00,-2.000000094994902611e-03,-3.000000026077032089e-03,7.000000216066837311e-03
7.796278329000000618e+00,-1.200000010430812836e-02,-2.199999988079071045e-02,-9.635999679565429688e+00,-2.000000094994902611e-03,-3.000000026077032089e-03,7.000000216066837311e-03
7.811788403000000436e+00,1.200000010430812836e-02,-3.099999949336051941e-02,-9.602000236511230469e+00,1.000000047497451305e-03,-3.000000026077032089e-03,7.000000216066837311e-03
7.825384848000000559e+00,1.200000010430812836e-02,-3.099999949336051941e-02,-9.602000236511230469e+00,1.000000047497451305e-03,-3.000000026077032089e-03,7.000000216066837311e-03
7.827372014000000711e+00,1.200000010430812836e-02,-3.599999845027923584e-02,-9.711999893188476562e+00,1.000000047497451305e-03,-2.000000094994902611e-03,6.000000052154064178e-03
7.836637162000000600e+00,1.200000010430812836e-02,-3.599999845027923584e-02,-9.711999893188476562e+00,1.000000047497451305e-03,-2.000000094994902611e-03,6.000000052154064178e-03
7.845726051000000645e+00,5.999999865889549255e-02,2.000000094994902611e-03,-9.692999839782714844e+00,-1.000000047497451305e-03,-3.000000026077032089e-03,6.000000052154064178e-03
7.855592792000000379e+00,5.999999865889549255e-02,2.000000094994902611e-03,-9.692999839782714844e+00,-1.000000047497451305e-03,-3.000000026077032089e-03,6.000000052154064178e-03
7.864268255000000707e+00,7.000000216066837311e-03,1.700000092387199402e-02,-9.673999786376953125e+00,-1.000000047497451305e-03,-2.000000094994902611e-03,7.000000216066837311e-03
7.877659459000000197e+00,-2.099999971687793732e-02,-1.200000010430812836e-02,-9.621000289916992188e+00,-1.000000047497451305e-03,-2.000000094994902611e-03,7.000000216066837311e-03
7.886171959000000342e+00,-2.099999971687793732e-02,-1.200000010430812836e-02,-9.621000289916992188e+00,-1.000000047497451305e-03,-2.000000094994902611e-03,7.000000216066837311e-03
7.905409477000000074e+00,-2.099999971687793732e-02,-1.200000010430812836e-02,-9.621000289916992188e+00,-1.000000047497451305e-03,-2.000000094994902611e-03,7.000000216066837311e-03
7.915035533000000179e+00,-1.200000010430812836e-02,-7.000000216066837311e-03,-9.687999725341796875e+00,-2.000000094994902611e-03,-1.000000047497451305e-03,7.000000216066837311e-03
7.919660162000000447e+00,-1.200000010430812836e-02,-7.000000216066837311e-03,-9.687999725341796875e+00,-2.000000094994902611e-03,-1.000000047497451305e-03,7.000000216066837311e-03
7.933128236000000832e+00,1.700000092387199402e-02,1.700000092387199402e-02,-9.645000457763671875e+00,1.000000047497451305e-03,-3.000000026077032089e-03,7.000000216066837311e-03
7.935298144000000775e+00,1.700000092387199402e-02,1.700000092387199402e-02,-9.645000457763671875e+00,1.000000047497451305e-03,-3.000000026077032089e-03,7.000000216066837311e-03
7.944416625000000565e+00,1.700000092387199402e-02,1.700000092387199402e-02,-9.645000457763671875e+00,1.000000047497451305e-03,-3.000000026077032089e-03,7.000000216066837311e-03
7.959879255000000597e+00,1.700000092387199402e-02,1.700000092387199402e-02,-9.645000457763671875e+00,1.000000047497451305e-03,-3.000000026077032089e-03,7.000000216066837311e-03
7.967366088000000346e+00,3.000000026077032089e-03,-1.200000010430812836e-02,-9.564000129699707031e+00,-1.000000047497451305e-03,-2.000000094994902611e-03,7.000000216066837311e-03
7.981289107000000271e+00,3.000000026077032089e-03,-1.200000010430812836e-02,-9.564000129699707031e+00,-1.000000047497451305e-03,-2.000000094994902611e-03,7.000000216066837311e-03
7.984234218000000105e+00,-2.600000053644180298e-02,-1.200000010430812836e-02,-9.668999671936035156e+00,1.000000047497451305e-03,-3.000000026077032089e-03,7.000000216066837311e-03
7.999091496000000134e+00,-2.600000053644180298e-02,-1.200000010430812836e-02,-9.668999671936035156e+00,1.000000047497451305e-03,-3.000000026077032089e-03,7.000000216066837311e-03
8.008150625000000744e+00,4.600000008940696716e-02,2.600000053644180298e-02,-9.659000396728515625e+00,-1.000000047497451305e-03,-3.000000026077032089e-03,6.000000052154064178e-03
8.015064180999999621e+00,4.600000008940696716e-02,2.600000053644180298e-02,-9.659000396728515625e+00,-1.000000047497451305e-03,-3.000000026077032089e-03,6.000000052154064178e-03
8.024720272999999793e+00,-7.000000216066837311e-03,-1.700000092387199402e-02,-9.588000297546386719e+00,1.000000047497451305e-03,-2.000000094994902611e-03,7.000000216066837311e-03
8.034224570000001009e+00,-7.000000216066837311e-03,-1.700000092387199402e-02,-9.588000297546386719e+00,1.000000047497451305e-03,-2.000000094994902611e-03,7.000000216066837311e-03
8.046262385000000350e+00,-3.999999910593032837e-02,-3.000000026077032089e-03,-9.630999565124511719e+00,-1.000000047497451305e-03,-2.000000094994902611e-03,7.000000216066837311e-03
8.054752681000000081e+00,-3.999999910593032837e-02,-3.000000026077032089e-03,-9.630999565124511719e+00,-1.000000047497451305e-03,-2.000000094994902611e-03,7.000000216066837311e-03
8.063795384000000510e+00,4.100000113248825073e-02,-2.600000053644180298e-02,-9.697999954223632812e+00,-1.000000047497451305e-03,-2.000000094994902611e-03,6.000000052154064178e-03
8.073930347000001007e+00,4.100000113248825073e-02,-2.600000053644180298e-02,-9.697999954223632812e+00,-1.000000047497451305e-03,-2.000000094994902611e-03,6.000000052154064178e-03
8.086087014000000295e+00,4.100000113248825073e-02,-2.600000053644180298e-02,-9.697999954223632812e+00,-1.000000047497451305e-03,-2.000000094994902611e-03,6.000000052154064178e-03
8.098006533000001284e+00,4.100000113248825073e-02,-2.600000053644180298e-02,-9.697999954223632812e+00,-1.000000047497451305e-03,-2.000000094994902611e-03,6.000000052154064178e-03
8.104383143999999817e+00,7.000000216066837311e-03,1.700000092387199402e-02,-9.616000175476074219e+00,1.000000047497451305e-03,-2.000000094994902611e-03,6.000000052154064178e-03
8.114280014000000207e+00,7.000000216066837311e-03,1.700000092387199402e-02,-9.616000175476074219e+00,1.000000047497451305e-03,-2.000000094994902611e-03,6.000000052154064178e-03
8.124119588000001002e+00,7.000000216066837311e-03,1.700000092387199402e-02,-9.616000175476074219e+00,1.000000047497451305e-03,-2.000000094994902611e-03,6.000000052154064178e-03
8.133745273000000608e+00,7.000000216066837311e-03,1.700000092387199402e-02,-9.616000175476074219e+00,1.000000047497451305e-03,-2.000000094994902611e-03,6.000000052154064178e-03
8.146119107000000525e+00,-4.488999843597412109e+00,1.672999978065490723e+00,-1.925999999046325684e+00,3.099999949336051941e-02,-2.560000121593475342e-01,6.700000166893005371e-02
8.154021199000000664e+00,-4.488999843597412109e+00,1.672999978065490723e+00,-1.925999999046325684e+00,3.099999949336051941e-02,-2.560000121593475342e-01,6.700000166893005371e-02
8.163858606999999878e+00,-5.671999931335449219e+00,-5.000000074505805969e-02,-1.276200008392333984e+01,-1.799999922513961792e-02,-9.099999815225601196e-02,-3.799999877810478210e-02
8.179814680999999865e+00,-5.671999931335449219e+00,-5.000000074505805969e-02,-1.276200008392333984e+01,-1.799999922513961792e-02,-9.099999815225601196e-02,-3.799999877810478210e-02
8.184935606999999891e+00,-5.671999931335449219e+00,-5.000000074505805969e-02,-1.276200008392333984e+01,-1.799999922513961792e-02,-9.099999815225601196e-02,-3.799999877810478210e-02
8.194017550999999955e+00,-5.671999931335449219e+00,-5.000000074505805969e-02,-1.276200008392333984e+01,-1.799999922513961792e-02,-9.099999815225601196e-02,-3.799999877810478210e-02
8.204832217999999955e+00,-3.588999986648559570e+00,2.509999871253967285e-01,-2.041399955749511719e+01,-3.500000014901161194e-02,8.200000226497650146e-02,-8.000000379979610443e-03
8.218203551000000218e+00,-3.588999986648559570e+00,2.509999871253967285e-01,-2.041399955749511719e+01,-3.500000014901161194e-02,8.200000226497650146e-02,-8.000000379979610443e-03
8.224895551000001248e+00,-3.118999958038330078e+00,-7.160000205039978027e-01,-6.729000091552734375e+00,-4.399999976158142090e-02,-8.999999612569808960e-03,7.199999690055847168e-02
8.235661255000000125e+00,-3.118999958038330078e+00,-7.160000205039978027e-01,-6.729000091552734375e+00,-4.399999976158142090e-02,-8.999999612569808960e-03,7.199999690055847168e-02
8.249527866000001097e+00,1.261999964714050293e+00,1.141999959945678711e+00,-1.061200046539306641e+01,-7.900000363588333130e-02,1.459999978542327881e-01,1.199999973177909851e-01
8.259269884000000062e+00,1.261999964714050293e+00,1.141999959945678711e+00,-1.061200046539306641e+01,-7.900000363588333130e-02,1.459999978542327881e-01,1.199999973177909851e-01
8.264156477000000223e+00,2.013999938964843750e+00,7.250000238418579102e-01,-1.104300022125244141e+01,-6.000000052154064178e-03,5.400000140070915222e-02,1.519999951124191284e-01
8.276439866000000478e+00,2.013999938964843750e+00,7.250000238418579102e-01,-1.104300022125244141e+01,-6.000000052154064178e-03,5.400000140070915222e-02,1.519999951124191284e-01
8.287770551000001262e+00,4.819999933242797852e-01,-1.013000011444091797e+00,-7.557000160217285156e+00,6.000000052154064178e-03,-3.799999877810478210e-02,1.499999966472387314e-02
8.294298421000000587e+00,4.819999933242797852e-01,-1.013000011444091797e+00,-7.557000160217285156e+00,6.000000052154064178e-03,-3.799999877810478210e-02,1.499999966472387314e-02
8.306439403000000610e+00,-9.499999880790710449e-01,-1.128000020980834961e+00,-6.662000179290771484e+00,3.400000184774398804e-02,-1.010000035166740417e-01,-1.879999935626983643e-01
8.314803514000001172e+00,-9.499999880790710449e-01,-1.128000020980834961e+00,-6.662000179290771484e+00,3.400000184774398804e-02,-1.010000035166740417e-01,-1.879999935626983643e-01
8.325071421000000527e+00,5.960000157356262207e-01,-6.589999794960021973e-01,-1.116800022125244141e+01,-2.000000094994902611e-03,1.519999951124191284e-01,-7.000000216066837311e-03
8.336452032000000401e+00,5.960000157356262207e-01,-6.589999794960021973e-01,-1.116800022125244141e+01,-2.000000094994902611e-03,1.519999951124191284e-01,-7.000000216066837311e-03
8.346769402999999699e+00,1.468000054359436035e+00,3.610000014305114746e-01,-1.026799964904785156e+01,-1.000000047497451305e-03,7.999999821186065674e-02,1.420000046491622925e-01
8.354886420999999785e+00,1.468000054359436035e+00,3.610000014305114746e-01,-1.026799964904785156e+01,-1.000000047497451305e-03,7.999999821186065674e-02,1.420000046491622925e-01
8.364076070000001195e+00,1.468000054359436035e+00,3.610000014305114746e-01,-1.026799964904785156e+01,-1.000000047497451305e-03,7.999999821186065674e-02,1.420000046491622925e-01
8.373646607000001296e+00,1.468000054359436035e+00,3.610000014305114746e-01,-1.026799964904785156e+01,-1.000000047497451305e-03,7.999999821186065674e-02,1.420000046491622925e-01
8.384032995000000099e+00,1.085000038146972656e+00,5.529999732971191406e-01,-9.711999893188476562e+00,-8.999999612569808960e-03,2.899999916553497314e-02,8.799999952316284180e-02
8.393678866000000127e+00,1.085000038146972656e+00,5.529999732971191406e-01,-9.711999893188476562e+00,-8.999999612569808960e-03,2.899999916553497314e-02,8.799999952316284180e-02
8.405175088000000017e+00,-4.500000178813934326e-02,-9.399999678134918213e-02,-8.979999542236328125e+00,1.300000026822090149e-02,-2.899999916553497314e-02,3.900000080466270447e-02
8.415096773000000141e+00,-4.500000178813934326e-02,-9.399999678134918213e-02,-8.979999542236328125e+00,1.300000026822090149e-02,-2.899999916553497314e-02,3.900000080466270447e-02
8.425070902999999944e+00,4.289999902248382568e-01,-2.849999964237213135e-01,-8.940999984741210938e+00,-6.000000052154064178e-03,1.099999994039535522e-02,8.999999612569808960e-03
8.435159347000000807e+00,4.289999902248382568e-01,-2.849999964237213135e-01,-8.940999984741210938e+00,-6.000000052154064178e-03,1.099999994039535522e-02,8.999999612569808960e-03
8.449931273000000687e+00,5.099999904632568359e-01,3.179999887943267822e-01,-9.869999885559082031e+00,-8.000000379979610443e-03,-8.999999612569808960e-03,5.299999937415122986e-02
8.455775088000001105e+00,5.099999904632568359e-01,3.179999887943267822e-01,-9.869999885559082031e+00,-8.000000379979610443e-03,-8.999999612569808960e-03,5.299999937415122986e-02
8.463628995000000543e+00,5.099999904632568359e-01,3.179999887943267822e-01,-9.869999885559082031e+00,-8.000000379979610443e-03,-8.999999612569808960e-03,5.299999937415122986e-02
8.476641884000001070e+00,5.099999904632568359e-01,3.179999887943267822e-01,-9.869999885559082031e+00,-8.000000379979610443e-03,-8.999999612569808960e-03,5.299999937415122986e-02
8.483756403000001001e+00,-1.539000034332275391e+00,-2.080000042915344238e-01,-7.403999805450439453e+00,2.300000004470348358e-02,-1.400000043213367462e-02,3.099999949336051941e-02
8.495368328999999719e+00,-1.539000034332275391e+00,-2.080000042915344238e-01,-7.403999805450439453e+00,2.300000004470348358e-02,-1.400000043213367462e-02,3.099999949336051941e-02
8.504769514000001251e+00,9.029999971389770508e-01,-1.912999987602233887e+00,-8.850000381469726562e+00,2.600000053644180298e-02,-2.500000037252902985e-02,-1.300000026822090149e-02
8.515182829000000453e+00,9.029999971389770508e-01,-1.912999987602233887e+00,-8.850000381469726562e+00,2.600000053644180298e-02,-2.500000037252902985e-02,-1.300000026822090149e-02
8.525957606000000411e+00,9.219999909400939941e-01,-5.440000295639038086e-01,-9.248000144958496094e+00,1.499999966472387314e-02,4.100000113248825073e-02,1.260000020265579224e-01
8.533695513999999704e+00,9.219999909400939941e-01,-5.440000295639038086e-01,-9.248000144958496094e+00,1.499999966472387314e-02,4.100000113248825073e-02,1.260000020265579224e-01
8.548078792000000092e+00,-9.169999957084655762e-01,-1.424999952316284180e+00,-1.072700023651123047e+01,9.999999776482582092e-03,-5.299999937415122986e-02,2.300000004470348358e-02
8.556359310000001273e+00,-9.169999957084655762e-01,-1.424999952316284180e+00,-1.072700023651123047e+01,9.999999776482582092e-03,-5.299999937415122986e-02,2.300000004470348358e-02
8.565248310000001197e+00,-1.725999951362609863e+00,8.450000286102294922e-01,-9.189999580383300781e+00,1.000000047497451305e-03,-1.040000021457672119e-01,1.059999987483024597e-01
8.575212366000000586e+00,-1.725999951362609863e+00,8.450000286102294922e-01,-9.189999580383300781e+00,1.000000047497451305e-03,-1.040000021457672119e-01,1.059999987483024597e-01
8.584646588000000023e+00,-1.070000007748603821e-01,8.590000271797180176e-01,-1.166100025177001953e+01,-3.000000026077032089e-03,1.099999994039535522e-02,1.010000035166740417e-01
8.594952032000000131e+00,-1.070000007748603821e-01,8.590000271797180176e-01,-1.166100025177001953e+01,-3.000000026077032089e-03,1.099999994039535522e-02,1.010000035166740417e-01
